rel_time,acc_x,acc_y,acc_z,gyro_x,gyro_y,gyro_z
1.0,154.0,-312.5098039215686,-260.4901960784314,-27.07,-6.73,-40.38
1.05,-299.4901960784314,253.98039215686273,-206.49019607843138,-20.8,-6.45,-31.39
1.1,-116.0,-231.50980392156862,-267.4901960784314,-7.19,-2.53,-32.93
1.15,265.0,264.0,190.01960784313727,-7.29,-6.34,-41.33
1.2,-188.49019607843138,155.98039215686273,-52.490196078431374,-1.45,-14.99,-65.13
1.25,106.0,-165.50980392156862,144.01960784313727,-30.92,-1.97,-60.72
1.3,-116.0,-18.50980392156863,282.01960784313724,-26.61,-3.3,-55.19
1.35,-116.0,30.49019607843137,301.5098039215686,-11.42,-0.57,-32.75
1.4,-259.0,30.49019607843137,-37.490196078431374,-0.43,24.66,-25.75
1.45,-195.0,-149.50980392156862,-206.49019607843138,-16.95,31.2,-13.89
1.5,-52.0,166.0,-83.49019607843137,40.26,27.18,17.57
1.55,-68.0,-209.0,5.019607843137255,-15.45,20.98,34.82
1.6,-243.0,-192.0,9.509803921568627,13.24,7.47,52.6
1.65,240.50980392156862,221.50980392156862,-98.49019607843137,-15.2,-5.85,78.85
1.7,-77.49019607843137,52.0,159.01960784313727,-6.56,-5.22,93.94
1.75,-188.49019607843138,264.0,-175.49019607843138,-19.79,-4.28,96.21
1.8,65.50980392156863,-138.01960784313727,-113.49019607843137,-27.14,-6.97,60.58
1.85,-259.0,-192.52941176470588,144.01960784313727,-80.72,-3.54,27.51
1.9,-82.01960784313725,-29.0,24.50980392156863,-175.05,-13.55,9.69
1.95,274.4901960784314,117.0,-6.490196078431373,-80.76,-5.26,-8.85
2.0,272.5098039215686,-57.01960784313726,98.01960784313725,-46.98,-7.08,-35.83
2.05,90.0,-149.50980392156862,-83.49019607843137,4.0,12.55,-38.88
2.1,-275.0,187.98039215686273,-83.49019607843137,-8.34,22.94,-16.2
2.15,260.03921568627453,286.45098039215685,221.01960784313727,-7.4,26.13,3.04
2.2,208.50980392156862,-204.01960784313727,255.50980392156862,44.67,26.44,34.75
2.25,-179.0,254.50980392156862,-190.49019607843138,23.15,39.99,60.55
2.3,41.01960784313726,19.0,-298.4901960784314,37.11,37.33,47.32
2.35,-156.49019607843138,-40.490196078431374,-313.4901960784314,3.69,16.05,68.25
2.4,317.52941176470586,264.0,236.01960784313727,29.06,-9.84,101.22
2.45,-308.98039215686276,-285.01960784313724,313.01960784313724,71.69,-31.96,67.44
2.5,65.50980392156863,-78.47058823529412,-36.490196078431374,25.81,-55.94,2.8
2.55,-152.52941176470588,-258.52941176470586,270.5098039215686,65.78,-76.62,-68.63
2.6,-84.0,144.49019607843138,86.50980392156863,-2.36,-73.82,-98.27
2.65,251.98039215686273,-154.49019607843138,101.50980392156863,29.17,-48.27,-82.24
2.7,-257.01960784313724,-274.0,236.01960784313727,-31.27,-35.15,-152.35
2.75,201.0,275.4901960784314,-301.98039215686276,-21.43,-21.57,-121.62
2.8,-98.01960784313725,-154.49019607843138,-286.98039215686276,-35.26,-13.76,-36.81
2.85,178.49019607843138,133.0,193.50980392156862,-21.4,23.75,28.07
2.9,-305.01960784313724,232.0,-233.0,-63.36,82.3,49.07
2.95,242.49019607843138,248.0,24.50980392156863,-72.5,113.73,92.22
3.0,194.49019607843138,19.0,282.01960784313724,20.84,219.82,199.29
3.05,-289.01960784313724,35.0,-282.45098039215685,123.88,-222.88,241.11
3.1,306.4901960784314,150.0,-231.92156862745097,179.84,-133.56,258.33
3.15,290.4901960784314,166.0,214.07843137254903,238.54,-220.68,199.04
3.2,-320.01960784313724,68.0,-308.96078431372547,214.35,261.15,-27.61
3.25,274.4901960784314,183.0,298.01960784313724,179.77,129.94,-181.71
3.3,-320.01960784313724,199.0,307.4901960784314,20.42,-23.18,-213.42
3.35,-320.01960784313724,35.0,-27.019607843137255,-104.42,-215.68,-110.91
3.4,38.470588235294116,41.509803921568626,-38.529411764705884,-31.33,-272.9,82.53
3.45,12.980392156862745,68.0,80.98039215686275,284.31,24.1,61.11
3.5,-298.5098039215686,-318.01960784313724,126.98039215686275,57.59,-60.52,52.39
3.55,74.0,62.490196078431374,270.5098039215686,-82.61,1.42,-33.0
3.6,-305.01960784313724,-29.0,166.0,-9.29,8.17,-47.77
3.65,134.47058823529412,-89.49019607843137,-310.0,-30.67,27.21,-33.31
3.7,-56.529411764705884,123.50980392156863,-64.0,-13.87,27.88,-13.92
3.75,-43.509803921568626,-312.5098039215686,-79.0,10.13,24.55,-7.03
3.8,-195.0,307.4901960784314,-98.49019607843137,16.36,30.22,-6.47
3.85,-43.509803921568626,-182.50980392156862,-156.0,5.51,31.45,-16.79
3.9,-311.52941176470586,-219.49019607843138,-295.0,18.88,40.13,-16.37
3.95,-111.03921568627452,-236.49019607843138,-156.0,13.21,47.41,-14.45
4.0,-273.01960784313724,-274.0,209.50980392156862,19.47,47.16,-18.82
4.05,201.0,46.490196078431374,58.0,28.89,44.68,-22.74
4.1,-266.5098039215686,-302.01960784313724,243.0,39.07,43.42,-19.63
4.15,-123.50980392156863,313.0,-144.49019607843138,7.54,55.74,-24.53
4.2,60.98039215686274,63.01960784313726,175.01960784313727,-3.27,60.57,-25.16
4.25,-123.50980392156863,237.50980392156862,52.01960784313726,-37.25,66.55,-20.15
4.3,74.0,106.98039215686275,224.50980392156862,-22.06,44.4,-12.91
4.35,281.0,-155.01960784313727,86.50980392156863,-42.01,35.58,-20.57
4.4,51.490196078431374,107.50980392156863,144.01960784313727,-22.27,-0.36,4.97
4.45,115.49019607843137,19.0,-292.5098039215686,-20.35,-73.47,53.34
4.5,320.5098039215686,156.50980392156862,-283.4901960784314,-90.0,-96.05,51.13
4.55,-154.50980392156862,-263.5098039215686,313.01960784313724,-83.28,-124.22,19.0
4.6,-199.52941176470588,-176.0,73.0,-26.86,-172.21,16.45
4.65,11.0,68.0,43.0,-62.24,-134.41,33.11
4.7,210.49019607843138,-94.0,-21.49019607843137,-90.28,-13.94,58.94
4.75,-98.01960784313725,-29.0,270.5098039215686,-87.37,27.42,68.04
4.8,290.4901960784314,-214.50980392156862,-184.50980392156862,-35.4,-15.37,69.4
4.85,-289.01960784313724,-176.0,-98.49019607843137,-8.06,-78.65,51.55
4.9,-241.01960784313727,-127.0,-126.0,0.78,-134.79,-5.8
4.95,-305.01960784313724,-263.5098039215686,-187.0,14.75,-232.16,-104.33
5.0,-289.01960784313724,-312.5098039215686,-230.50980392156862,40.86,-273.25,-135.9
5.05,-305.01960784313724,166.0,43.0,12.26,-146.31,-126.97
5.1,-273.01960784313724,248.0,43.0,-8.76,-11.03,-32.68
5.15,274.4901960784314,215.0,104.0,-23.39,96.37,71.33
5.2,210.49019607843138,215.0,304.0,-83.56,140.12,113.92
5.25,306.4901960784314,-133.50980392156862,120.0,-82.58,171.03,94.92
5.3,-225.01960784313727,166.0,-33.0,41.8,78.03,76.93
5.35,-320.01960784313724,68.0,-64.0,52.27,41.91,12.74
5.4,-320.01960784313724,84.0,-261.5098039215686,26.89,82.02,-61.98
5.45,306.4901960784314,297.0,-156.0,25.0,32.5,-27.85
5.5,-241.01960784313727,150.0,-203.0,79.85,53.92,-22.99
5.55,-98.01960784313725,286.5098039215686,212.0,74.35,69.56,-35.31
5.6,226.49019607843138,166.0,-249.0,-2.64,74.53,-24.84
5.65,194.49019607843138,-143.0,-18.0,52.62,89.27,-33.87
5.7,258.4901960784314,35.0,193.50980392156862,114.67,73.52,-19.7
5.75,-209.01960784313727,150.0,-160.49019607843138,-6.1,96.41,-30.27
5.8,-66.01960784313725,101.0,-67.49019607843137,94.41,73.06,-13.82
5.85,-114.01960784313725,150.0,178.50980392156862,49.36,72.99,-26.07
5.9,-273.01960784313724,-263.5098039215686,70.50980392156863,69.63,68.76,-30.9
5.95,-313.5098039215686,166.0,-49.0,37.67,79.29,-37.13
6.0,281.0,-170.49019607843138,-203.0,3.16,76.84,-37.69
6.05,12.980392156862745,-236.01960784313727,263.52941176470586,-20.03,80.83,-30.37
6.1,-13.490196078431373,-263.5098039215686,147.50980392156862,-12.68,61.86,-8.18
6.15,-59.509803921568626,286.5098039215686,282.01960784313724,-32.81,28.3,-23.79
6.2,92.98039215686275,90.50980392156863,239.50980392156862,-16.6,-6.59,-12.91
6.25,-209.01960784313727,-143.0,-190.49019607843138,-33.3,-55.52,23.45
6.3,-146.01960784313727,-45.0,58.0,-39.7,-117.57,73.04
6.35,-52.0,313.0,-21.49019607843137,-82.79,-123.8,56.07
6.4,147.49019607843138,-62.0,147.50980392156862,-48.94,-136.44,-1.32
6.45,290.4901960784314,281.0,-218.0,-0.5,-167.03,18.83
6.5,258.4901960784314,-225.0,316.5098039215686,-78.76,-154.11,32.41
6.55,258.4901960784314,313.0,-172.0,-69.45,-93.77,41.09
6.6,-146.01960784313727,-127.0,-141.0,-76.17,-21.95,68.46
6.65,-177.01960784313727,133.0,-292.5098039215686,7.64,-60.52,89.18
6.7,-193.01960784313727,3.0,24.50980392156863,25.14,-112.92,64.5
6.75,83.49019607843137,-62.0,227.0,-1.31,-166.19,18.69
6.8,-273.01960784313724,281.0,-49.0,17.27,-219.32,-31.25
6.85,-177.01960784313727,297.0,-3.0,-6.17,-206.75,-111.36
6.9,-273.01960784313724,166.0,-95.0,-15.2,-147.28,-138.1
6.95,274.4901960784314,117.0,120.0,-59.93,-67.56,4.97
7.0,242.49019607843138,35.0,243.0,-28.5,110.65,88.02
7.05,226.49019607843138,-296.5098039215686,150.0,-35.22,167.04,49.52
7.1,210.49019607843138,-182.50980392156862,166.0,-41.03,146.53,68.63
7.15,-225.01960784313727,297.0,58.0,-24.58,127.63,35.24
7.2,-320.01960784313724,19.0,-110.0,-39.14,53.08,43.96
7.25,258.4901960784314,35.0,258.0,-9.32,66.66,14.1
7.3,-320.01960784313724,-280.5098039215686,-95.0,-6.56,103.86,-47.1
7.35,-130.01960784313727,-62.0,-249.0,-120.76,89.83,-13.05
7.4,-177.01960784313727,-45.0,43.0,-76.98,55.98,-20.54
7.45,258.4901960784314,52.0,316.5098039215686,-82.72,51.78,-12.87
7.5,242.49019607843138,68.0,89.0,-55.45,100.05,-40.24
7.55,147.49019607843138,35.0,-218.0,-1.83,50.28,-10.14
7.6,242.49019607843138,101.0,-190.49019607843138,-17.83,78.14,-19.98
7.65,83.49019607843137,84.0,86.50980392156863,-6.84,55.0,-20.08
7.7,-257.01960784313724,3.0,209.50980392156862,52.37,78.63,-13.96
7.75,-161.01960784313727,-198.50980392156862,175.01960784313727,5.54,76.88,-33.77
7.8,-84.0,215.0,124.52941176470588,-3.16,76.18,-42.24
7.85,-139.50980392156862,-274.0,239.50980392156862,-31.79,67.08,-49.06
7.9,-282.5098039215686,52.0,-36.490196078431374,-50.9,77.09,-38.88
7.95,-243.0,35.0,-313.4901960784314,-45.34,73.1,-26.42
8.0,-282.5098039215686,-149.50980392156862,-313.4901960784314,-17.51,44.08,-8.57
8.05,147.49019607843138,-45.0,-175.49019607843138,0.47,14.37,-9.41
8.1,35.490196078431374,183.0,-83.49019607843137,-9.88,-37.77,13.54
8.15,-282.5098039215686,303.5098039215686,-267.4901960784314,21.4,-108.82,55.51
8.2,-267.4901960784314,275.4901960784314,109.52941176470588,66.65,-151.94,49.52
8.25,171.98039215686273,-198.50980392156862,-113.49019607843137,74.81,-175.15,19.67
8.3,70.47058823529412,-94.0,-33.0,31.51,-187.64,48.4
8.35,154.0,19.0,286.5098039215686,62.73,-134.23,34.93
8.4,-139.50980392156862,-143.0,255.50980392156862,40.23,-77.74,56.84
8.45,-114.01960784313725,101.0,166.0,84.12,-25.56,71.26
8.5,-130.01960784313727,221.50980392156862,-156.0,78.52,-20.13,65.83
8.55,242.49019607843138,35.0,-52.490196078431374,64.31,-89.5,54.46
8.6,-305.01960784313724,215.0,27.0,42.57,-166.78,-19.8
8.65,-225.01960784313727,232.0,135.0,55.14,-289.25,-108.91
8.7,-209.01960784313727,35.0,89.0,22.97,-286.13,-126.31
8.75,-289.01960784313724,199.0,-79.0,-15.8,-166.5,-151.23
8.8,-305.01960784313724,133.0,135.0,-39.63,-41.9,12.81
8.85,242.49019607843138,133.0,-230.50980392156862,-40.16,90.39,58.41
8.9,258.4901960784314,183.0,320.0,-17.02,143.83,62.79
8.95,-289.01960784313724,-280.5098039215686,12.0,-29.17,157.41,99.99
9.0,-320.01960784313724,-165.50980392156862,166.0,-41.31,-50.55,91.49
9.05,242.49019607843138,183.0,-276.5098039215686,-88.35,-138.61,45.88
9.1,-305.01960784313724,-29.0,-3.0,-14.68,-180.75,64.36
9.15,306.4901960784314,215.0,73.0,30.5,-184.7,-20.64
9.2,-225.01960784313727,150.0,-249.0,-31.13,-178.4,-8.78
9.25,-50.01960784313726,286.5098039215686,27.0,-99.27,-111.24,-55.08
9.3,-193.01960784313727,-127.0,273.0,-95.42,-44.25,-36.88
9.35,147.49019607843138,-127.0,-187.0,-86.64,-6.27,-24.46
9.4,178.49019607843138,3.0,-261.5098039215686,-31.09,-48.31,-25.96
9.45,306.4901960784314,133.0,147.50980392156862,-1.55,-71.27,-20.82
9.5,242.49019607843138,-214.50980392156862,70.50980392156863,18.04,-149.95,-7.97
9.55,-305.01960784313724,-45.0,70.50980392156863,59.13,-241.79,-29.39
9.6,-320.01960784313724,-78.0,-221.49019607843138,34.77,-259.88,-43.25
9.65,-225.01960784313727,-247.50980392156862,-129.49019607843138,-19.26,-151.03,-43.01
9.7,-177.01960784313727,-18.50980392156863,-236.49019607843138,-37.67,12.27,-53.37
9.75,106.0,84.0,-264.0,-54.89,43.84,-51.55
9.8,233.0,-94.0,-175.49019607843138,-49.64,129.24,-37.76
9.85,-84.0,215.0,-236.49019607843138,-36.59,172.46,-22.25
9.9,-66.01960784313725,-29.0,-298.4901960784314,-24.23,97.63,-10.88
9.95,306.4901960784314,101.0,-221.49019607843138,18.53,78.07,-5.59
10.0,186.0,-149.50980392156862,166.0,-41.31,-50.55,46.2
10.05,99.49019607843137,-209.0,-276.5098039215686,-88.35,-138.61,59.25
10.1,-98.01960784313725,3.0,-3.0,-14.68,-180.75,19.91
10.15,-186.50980392156862,248.0,73.0,30.5,-184.7,11.3
10.2,-209.01960784313727,319.5098039215686,-249.0,-31.13,-178.4,37.87
10.25,226.49019607843138,35.0,27.0,-99.27,-111.24,33.11
10.3,-18.019607843137255,84.0,273.0,-95.42,-44.25,50.96
10.35,290.4901960784314,68.0,-187.0,-86.64,-6.27,56.0
10.4,-305.01960784313724,-62.0,-261.5098039215686,-31.09,-48.31,66.18
10.45,226.49019607843138,-62.0,147.50980392156862,-1.55,-71.27,35.45
10.5,226.49019607843138,117.0,70.50980392156863,18.04,-149.95,-2.76
10.55,-209.01960784313727,-78.0,70.50980392156863,59.13,-241.79,-86.83
10.6,258.4901960784314,35.0,-221.49019607843138,34.77,-259.88,-120.99
10.65,-241.01960784313727,199.0,-129.49019607843138,-19.26,-151.03,-150.35
10.7,258.4901960784314,101.0,-236.49019607843138,-37.67,12.27,-11.75
10.75,-305.01960784313724,68.0,-264.0,-54.89,43.84,78.82
10.8,306.4901960784314,166.0,-175.49019607843138,-49.64,129.24,66.57
10.85,-305.01960784313724,117.0,-236.49019607843138,-36.59,172.46,75.11
10.9,210.49019607843138,232.0,-298.4901960784314,-24.23,97.63,87.5
10.95,274.4901960784314,-214.50980392156862,-221.49019607843138,18.53,78.07,45.32
11.0,186.0,-149.50980392156862,52.01960784313726,17.37,92.66,18.3
11.05,99.49019607843137,-209.0,-206.49019607843138,35.08,84.82,-12.52
11.1,-98.01960784313725,3.0,-18.0,18.74,61.97,-0.06
11.15,-186.50980392156862,248.0,-221.49019607843138,39.91,56.86,-13.57
11.2,-209.01960784313727,319.5098039215686,-280.0,48.21,70.82,-18.37
11.25,226.49019607843138,35.0,-172.0,50.55,76.67,-25.93
11.3,-18.019607843137255,84.0,224.50980392156862,38.44,65.85,-28.03
11.35,290.4901960784314,68.0,181.0,61.19,72.12,-26.98
11.4,-305.01960784313724,-62.0,-279.0,81.25,81.11,-7.52
11.45,226.49019607843138,-62.0,-310.0,21.89,80.03,-32.12
11.5,226.49019607843138,117.0,-153.50980392156862,91.26,72.19,-13.61
11.55,-209.01960784313727,-78.0,-79.0,60.53,80.24,-33.21
11.6,258.4901960784314,35.0,27.0,74.46,81.01,-44.2
11.65,-241.01960784313727,199.0,-3.0,32.18,70.75,-54.35
11.7,258.4901960784314,101.0,-153.50980392156862,-4.81,69.53,-41.99
11.75,-305.01960784313724,68.0,304.0,-23.11,57.94,-27.47
11.8,306.4901960784314,166.0,135.0,-23.88,28.16,-17.84
11.85,-305.01960784313724,117.0,181.0,-48.38,-3.54,1.19
11.9,210.49019607843138,232.0,-307.5098039215686,-62.0,-80.68,70.98
11.95,274.4901960784314,-214.50980392156862,243.0,-54.02,-170.07,44.66
12.0,-257.01960784313724,248.0,166.0,12.54,-190.09,6.26
12.05,258.4901960784314,166.0,196.0,-18.98,-172.87,36.43
12.1,-114.01960784313725,52.0,316.5098039215686,-142.32,-130.1,28.49
12.15,12.980392156862745,-241.0,304.0,-87.83,-109.56,39.13
12.2,290.4901960784314,166.0,-249.0,-125.59,-53.94,48.33
12.25,226.49019607843138,68.0,304.0,-53.04,-40.68,72.31
12.3,83.49019607843137,166.0,286.5098039215686,-25.28,-98.36,69.44
12.35,-98.01960784313725,166.0,-160.49019607843138,-7.75,-114.7,7.77
12.4,210.49019607843138,-312.5098039215686,270.5098039215686,12.02,-208.08,-35.94
12.45,147.49019607843138,-13.0,193.50980392156862,4.63,-274.9,-150.6
12.5,194.49019607843138,303.5098039215686,-310.0,22.52,-204.51,-160.99
12.55,-143.0392156862745,-312.5098039215686,-236.49019607843138,5.02,-26.43,-78.81
12.6,27.0,13.490196078431373,-283.4901960784314,-6.59,40.06,16.87
12.65,-259.0,-219.49019607843138,-98.49019607843137,-13.49,109.57,85.71
12.7,203.98039215686273,133.0,-279.0,-65.43,155.38,94.15
12.75,201.0,-133.50980392156862,-190.49019607843138,-37.74,136.59,94.36
12.8,-186.50980392156862,-45.0,-267.4901960784314,49.82,108.27,68.49
12.85,-91.50980392156863,281.0,67.01960784313725,7.5,100.26,38.74
12.9,258.4901960784314,-127.0,-295.0,1.55,61.76,11.3
12.95,-50.01960784313726,-94.0,243.0,46.98,97.0,-31.77
13.0,-225.01960784313727,19.0,316.5098039215686,65.85,49.72,-8.01
13.05,-225.01960784313727,68.0,-49.0,45.2,66.2,-37.16
13.1,-139.50980392156862,-312.5098039215686,193.50980392156862,61.26,65.19,-30.79
13.15,-202.50980392156862,-29.0,-236.49019607843138,99.1,78.14,-18.61
13.2,-241.01960784313727,-274.0,243.0,162.87,72.33,-67.23
13.25,306.4901960784314,-198.50980392156862,239.50980392156862,-29.45,134.0,-90.64
13.3,288.5098039215686,-187.01960784313727,-307.5098039215686,-165.39,77.61,-15.64
13.35,-140.49019607843138,-62.0,-122.50980392156863,139.42,-72.63,85.85
13.4,208.50980392156862,-301.4901960784314,-89.01960784313725,28.22,-122.58,-31.63
13.45,311.01960784313724,-285.4901960784314,49.98039215686274,-151.53,-291.73,-15.5
13.5,-202.50980392156862,-268.4901960784314,295.98039215686276,50.69,-0.44,-292.07
13.55,-236.49019607843138,172.50980392156862,277.4901960784314,175.96,-287.02,291.44
13.6,187.54901960784315,-204.01960784313727,-280.0,129.83,-22.31,-81.09
13.65,-106.3921568627451,101.47058823529412,-139.9607843137255,-212.43,178.94,-104.57
13.7,-294.4117647058824,-241.0,-78.96078431372548,38.34,-322.64,-152.94
13.75,321.05882352941177,-165.50980392156862,83.05882352941177,-309.51,-60.03,9.87
13.8,136.01960784313727,-149.50980392156862,-300.94117647058823,267.62,119.55,21.45
13.85,-108.49019607843137,3.0,244.0392156862745,228.07,246.07,38.74
13.9,-299.4901960784314,-296.5098039215686,21.019607843137255,202.38,267.7,62.09
13.95,317.52941176470586,-286.01960784313724,163.50980392156862,135.81,251.84,113.64
14.0,181.0392156862745,-73.01960784313725,-310.0,161.47,216.49,146.26
14.05,79.52941176470588,258.4901960784314,-95.0,131.4,181.53,121.13
14.1,-101.98039215686275,-280.5098039215686,-79.0,111.87,146.04,87.74
14.15,-315.4901960784314,19.0,-95.0,149.5,99.21,66.25
14.2,-61.490196078431374,-94.0,-172.0,64.87,55.11,32.44
14.25,-188.49019607843138,-241.0,316.5098039215686,-8.69,5.51,16.41
14.3,-29.49019607843137,303.5098039215686,255.50980392156862,-3.83,1.49,17.6
14.35,2.5098039215686274,-209.0,-190.49019607843138,-26.26,-7.5,37.38
14.4,240.50980392156862,-274.0,-67.49019607843137,2.95,-7.15,10.6
14.45,208.50980392156862,-258.0,313.01960784313724,34.84,-1.62,73.81
14.5,304.5098039215686,-127.0,-313.4901960784314,4.21,0.19,50.12
14.55,320.5098039215686,-192.0,190.01960784313727,-34.87,6.18,86.8
14.6,-243.0,-160.0,236.01960784313727,-33.4,12.41,51.45
14.65,240.50980392156862,-62.0,282.01960784313724,-9.36,9.78,36.96
14.7,240.50980392156862,117.0,-313.4901960784314,16.29,12.41,62.54
14.75,-290.0,-29.0,-283.4901960784314,9.88,28.33,117.81
14.8,-306.0,35.0,-252.49019607843138,3.41,28.72,90.37
14.85,272.5098039215686,150.0,267.01960784313724,-5.75,1.7,59.64
14.9,-243.0,52.0,282.01960784313724,-5.72,2.92,63.14
14.95,-306.0,35.0,252.01960784313727,-33.23,-0.85,81.48
15.0,-243.0,35.0,282.01960784313724,-30.74,-2.53,57.71
15.05,-243.0,19.0,-283.4901960784314,9.18,2.78,62.44
15.1,-179.0,183.0,282.01960784313724,-32.84,-0.64,60.13
15.15,-211.0,3.0,-252.49019607843138,-42.15,3.52,53.41
15.2,-147.0,68.0,313.01960784313724,-58.64,3.1,40.7
15.25,-227.0,117.0,-298.4901960784314,-53.77,3.2,18.41
15.3,-179.0,133.0,-313.4901960784314,-40.4,5.2,0.03
15.35,-275.0,133.0,-283.4901960784314,-27.1,6.11,-17.46
15.4,320.5098039215686,84.0,-313.4901960784314,8.41,8.77,-50.29
15.45,-306.0,166.0,-267.4901960784314,-4.0,18.39,-63.73
15.5,-227.0,166.0,298.01960784313724,-29.83,22.49,-15.78
15.55,-211.0,232.0,298.01960784313724,-47.86,28.54,-82.7
15.6,224.50980392156862,-247.50980392156862,236.01960784313727,-40.79,29.49,-71.11
15.65,320.5098039215686,13.490196078431373,313.01960784313724,-18.11,22.24,-61.38
15.7,-243.0,-214.50980392156862,-283.4901960784314,-5.16,3.66,-37.37
15.75,-163.0,-312.5098039215686,-283.4901960784314,4.74,13.91,-27.36
15.8,320.5098039215686,313.0,-175.49019607843138,2.99,50.59,-48.19
15.85,81.50980392156863,-149.50980392156862,-283.4901960784314,-15.13,66.8,-20.29
15.9,-306.0,215.0,-206.49019607843138,-34.21,40.97,-41.01
15.95,-195.0,183.0,-144.49019607843138,-71.2,24.17,-13.71
16.0,-195.0,297.0,-221.49019607843138,-47.16,7.47,-15.25
16.05,-211.0,-280.5098039215686,-175.49019607843138,-44.78,9.61,14.03
16.1,-116.0,-296.5098039215686,-236.49019607843138,-2.74,-9.25,12.35
16.15,27.0,313.0,-221.49019607843138,-40.93,-7.92,86.66
16.2,27.0,-214.50980392156862,-283.4901960784314,-9.39,-10.58,101.81
16.25,-36.0,-84.50980392156863,221.01960784313727,-37.08,-38.3,120.05
16.3,74.0,-133.50980392156862,113.01960784313725,-10.44,-68.15,45.85
16.35,-52.0,258.4901960784314,-298.4901960784314,12.61,-56.81,111.75
16.4,-20.0,291.4901960784314,-98.49019607843137,84.47,-133.95,55.16
16.45,170.0,-182.50980392156862,86.50980392156863,80.2,-100.95,80.95
16.5,240.50980392156862,-149.50980392156862,-98.49019607843137,88.77,-122.23,4.27
16.55,-52.0,-280.5098039215686,-83.49019607843137,115.34,-108.33,0.17
16.6,27.0,-149.50980392156862,70.50980392156863,42.61,-49.25,36.54
16.65,-275.0,232.0,-252.49019607843138,-39.04,-74.07,54.7
16.7,-243.0,248.0,267.01960784313724,-5.93,-45.79,26.0
16.75,145.50980392156862,-51.509803921568626,190.01960784313727,-48.24,-49.36,37.31
16.8,320.5098039215686,281.0,-298.4901960784314,-27.52,-33.43,-57.5
16.85,304.5098039215686,-280.5098039215686,-175.49019607843138,13.45,-11.07,-39.96
16.9,177.50980392156862,281.0,-298.4901960784314,64.97,21.68,-44.16
16.95,18.50980392156863,199.0,236.01960784313727,33.16,46.46,-74.33
17.0,-13.490196078431373,13.490196078431373,-298.4901960784314,-9.53,16.26,-63.2
17.05,216.01960784313727,-182.50980392156862,-129.49019607843138,-17.58,15.63,-46.72
17.1,206.52941176470588,232.0,-113.49019607843137,-31.51,25.92,-52.04
17.15,-95.47058823529412,232.0,-113.49019607843137,-26.68,32.18,-45.49
17.2,-197.98039215686273,264.0,-160.49019607843138,-17.9,30.29,-24.18
17.25,57.01960784313726,183.0,-160.49019607843138,-12.54,25.11,-14.13
17.3,168.01960784313727,84.0,-160.49019607843138,-32.35,23.26,-13.47
17.35,-267.4901960784314,68.0,-144.49019607843138,-14.33,12.41,-2.93
17.4,-172.49019607843138,183.0,-221.49019607843138,-14.85,6.53,19.14
17.45,-267.4901960784314,101.0,-283.4901960784314,-7.96,14.26,30.8
17.5,152.01960784313727,183.0,-313.4901960784314,-10.86,10.45,59.81
17.55,72.01960784313725,199.0,-267.4901960784314,4.77,17.97,84.98
17.6,-117.98039215686275,232.0,252.01960784313727,10.55,-9.0,81.13
17.65,-22.980392156862745,215.0,236.01960784313727,28.43,-27.48,82.63
17.7,-252.49019607843138,-280.5098039215686,159.01960784313727,23.46,-37.18,109.09
17.75,-267.4901960784314,46.490196078431374,-221.49019607843138,-11.56,-64.41,104.23
17.8,311.01960784313724,-312.5098039215686,86.50980392156863,-15.76,-74.42,62.09
17.85,-93.49019607843137,232.0,101.50980392156863,-100.57,-97.83,-30.48
17.9,-13.490196078431373,117.0,255.50980392156862,-116.63,-100.21,-133.73
17.95,-61.490196078431374,166.0,286.5098039215686,-113.31,-104.55,-224.48
18.0,-77.49019607843137,-78.0,316.5098039215686,-154.5,-114.84,-302.57
18.05,-93.49019607843137,-62.0,301.5098039215686,-156.22,-82.68,-326.33
18.1,-204.49019607843138,35.0,209.50980392156862,-219.71,-30.42,-265.96
18.15,-315.4901960784314,84.0,-264.0,-34.31,-31.93,-156.23
18.2,247.01960784313727,35.0,70.50980392156863,162.06,-23.81,-91.94
18.25,311.01960784313724,84.0,70.50980392156863,135.29,-1.72,-69.5
18.3,279.01960784313724,199.0,255.50980392156862,9.32,32.78,-51.65
18.35,-22.980392156862745,-263.5098039215686,163.50980392156862,-27.84,80.62,-3.39
18.4,-299.4901960784314,264.0,162.50980392156862,15.06,107.92,74.2
18.45,295.01960784313724,232.0,224.50980392156862,-7.08,118.42,132.65
18.5,25.019607843137255,117.0,-310.0,-23.95,126.54,175.63
18.55,57.01960784313726,101.0,-310.0,-56.47,124.97,195.37
18.6,136.01960784313727,215.0,-233.0,-75.65,78.49,205.34
18.65,247.01960784313727,297.0,-203.0,29.1,3.17,198.59
18.7,247.01960784313727,199.0,224.50980392156862,103.4,-21.64,158.06
18.75,-283.4901960784314,84.0,224.50980392156862,89.75,-42.39,107.73
18.8,-156.49019607843138,52.0,209.50980392156862,64.55,-76.66,69.47
18.85,-108.49019607843137,101.0,132.50980392156862,71.97,-99.69,13.23
18.9,-172.49019607843138,52.0,70.50980392156863,85.38,-112.92,-53.33
18.95,-283.4901960784314,19.0,-6.490196078431373,81.95,-125.97,-88.54
19.0,200.01960784313727,-45.0,-67.49019607843137,65.99,-136.51,-107.76
19.05,-22.980392156862745,-143.0,-52.490196078431374,83.59,-123.49,-117.56
19.1,-188.49019607843138,52.0,-129.49019607843138,82.82,-91.08,-114.09
19.15,-220.49019607843138,-62.0,-98.49019607843137,19.65,-33.61,-76.54
19.2,311.01960784313724,-241.0,-83.49019607843137,-10.69,1.63,-22.53
19.25,-283.4901960784314,68.0,-67.49019607843137,2.15,10.73,21.7
19.3,-220.49019607843138,150.0,-83.49019607843137,65.71,34.91,53.86
19.35,-220.49019607843138,84.0,-206.49019607843138,124.96,70.68,126.42
19.4,-188.49019607843138,68.0,55.509803921568626,113.59,92.07,122.22
19.45,-124.49019607843137,68.0,163.50980392156862,35.75,117.55,101.95
19.5,-61.490196078431374,101.0,193.50980392156862,-10.3,115.59,104.79
19.55,-156.49019607843138,117.0,-279.0,-7.19,90.0,115.92
19.6,200.01960784313727,183.0,-264.0,41.0,64.38,133.38
19.65,72.01960784313725,313.0,-310.0,38.76,45.03,137.44
19.7,-236.49019607843138,-296.5098039215686,-203.0,20.73,22.49,119.66
19.75,263.01960784313724,313.0,-141.0,20.49,-12.92,73.78
19.8,216.01960784313727,52.0,-141.0,43.03,-51.04,21.31
19.85,295.01960784313724,68.0,-218.0,60.32,-100.39,-32.02
19.9,263.01960784313724,248.0,286.5098039215686,66.65,-120.13,-47.1
19.95,263.01960784313724,297.0,132.50980392156862,27.42,-144.84,-71.95
20.0,-315.4901960784314,297.0,-310.0,13.94,-145.36,-66.53
20.05,-299.4901960784314,-231.50980392156862,-310.0,127.41,-110.64,-36.81
20.1,311.01960784313724,297.0,-233.0,20.59,-29.48,-34.29
20.15,231.01960784313727,183.0,-156.0,-134.17,25.18,-45.74
20.2,136.01960784313727,166.0,-218.0,-107.29,54.83,-29.64
20.25,-22.980392156862745,35.0,-295.0,-52.34,56.58,-6.85
20.3,-93.49019607843137,-45.0,116.50980392156863,-35.33,50.8,18.44
20.35,-236.49019607843138,-127.0,-52.490196078431374,-17.72,37.75,37.38
20.4,-220.49019607843138,286.5098039215686,178.50980392156862,-15.73,25.6,40.95
20.45,-267.4901960784314,-143.0,70.50980392156863,-1.34,8.28,29.33
20.5,-188.49019607843138,19.0,-52.490196078431374,6.0,-21.67,11.65
20.55,-252.49019607843138,3.0,39.509803921568626,22.52,-64.83,-22.57
20.6,-315.4901960784314,117.0,70.50980392156863,91.92,-86.35,-10.95
20.65,295.01960784313724,183.0,86.50980392156863,229.12,-76.94,43.99
20.7,-267.4901960784314,264.0,116.50980392156863,277.53,-35.04,74.79
20.75,-267.4901960784314,-280.5098039215686,86.50980392156863,181.52,18.88,71.82
20.8,216.01960784313727,-312.5098039215686,163.50980392156862,101.41,54.23,49.31
20.85,72.01960784313725,-247.50980392156862,101.50980392156863,105.08,85.98,48.65
20.9,311.01960784313724,-280.5098039215686,147.50980392156862,35.29,97.32,64.01
20.95,-252.49019607843138,-312.5098039215686,101.50980392156863,27.84,88.39,79.34
21.0,168.01960784313727,313.0,86.50980392156863,59.48,73.34,87.04
21.05,41.01960784313726,101.0,286.5098039215686,36.38,60.39,85.89
21.1,152.01960784313727,35.0,316.5098039215686,-20.1,38.1,74.58
21.15,263.01960784313724,117.0,316.5098039215686,-62.56,10.2,60.06
21.2,295.01960784313724,183.0,-295.0,-96.16,-19.96,53.62
21.25,-315.4901960784314,215.0,-249.0,-23.39,-50.93,70.94
21.3,311.01960784313724,183.0,-187.0,66.65,-47.61,35.87
21.35,-299.4901960784314,150.0,43.0,-44.43,-66.68,-51.44
21.4,279.01960784313724,-29.0,-264.0,0.19,-64.79,-99.71
21.45,295.01960784313724,3.0,-218.0,-16.39,-62.83,-123.4
21.5,41.01960784313726,35.0,239.50980392156862,-57.31,-54.54,-145.07
21.55,-236.49019607843138,-78.0,163.50980392156862,-73.93,-36.83,-147.03
21.6,-77.49019607843137,35.0,-83.49019607843137,-93.18,-20.27,-122.95
21.65,-315.4901960784314,-176.0,70.50980392156863,-66.44,-16.42,-88.65
21.7,-283.4901960784314,-94.0,70.50980392156863,-4.07,-18.87,-50.67
21.75,-172.49019607843138,101.0,-6.490196078431373,24.27,-33.89,-19.07
21.8,-140.49019607843138,150.0,9.509803921568627,56.64,-30.0,31.15
21.85,-220.49019607843138,166.0,70.50980392156863,121.92,-24.33,92.22
21.9,-220.49019607843138,199.0,70.50980392156863,214.04,-10.4,124.11
21.95,-156.49019607843138,215.0,86.50980392156863,243.12,37.61,124.84
22.0,-140.49019607843138,199.0,70.50980392156863,133.64,85.21,102.83
22.05,-188.49019607843138,215.0,86.50980392156863,29.45,112.37,83.75
22.1,-299.4901960784314,183.0,39.509803921568626,10.79,111.53,70.21
22.15,-213.98039215686273,-312.5098039215686,-252.49019607843138,26.61,94.17,58.59
22.2,295.01960784313724,232.0,55.509803921568626,43.73,69.04,45.57
22.25,231.01960784313727,264.0,39.509803921568626,37.29,45.06,34.19
22.3,25.019607843137255,183.0,147.50980392156862,34.45,20.67,24.46
22.35,120.01960784313725,68.0,270.5098039215686,-48.56,-1.16,3.43
22.4,200.01960784313727,248.0,-249.0,-23.67,-31.02,-24.77
22.45,231.01960784313727,-296.5098039215686,-187.0,-19.44,-70.95,-58.97
22.5,295.01960784313724,264.0,-110.0,2.78,-97.69,-49.45
22.55,-236.49019607843138,-296.5098039215686,-79.0,99.87,-76.52,-45.53
22.6,-236.49019607843138,313.0,-80.0,-58.25,-57.76,-67.89
22.65,-236.49019607843138,232.0,-126.0,-137.42,-21.99,-80.67
22.7,-283.4901960784314,215.0,-203.0,-102.7,-1.76,-76.05
22.75,247.01960784313727,150.0,-295.0,-74.46,-0.85,-69.4
22.8,-38.98039215686274,68.0,132.50980392156862,-52.9,-5.68,-49.87
22.85,-188.49019607843138,-29.0,-160.49019607843138,-10.44,-16.95,-22.85
22.9,-220.49019607843138,52.0,-9.980392156862745,35.19,-30.63,-0.06
22.95,231.01960784313727,286.5098039215686,-221.49019607843138,56.71,-37.95,7.31
23.0,-188.49019607843138,199.0,70.50980392156863,55.42,-34.94,13.58
23.05,-124.49019607843137,215.0,86.50980392156863,57.48,-41.2,10.81
23.1,-124.49019607843137,183.0,39.509803921568626,92.06,2.22,19.74
23.15,-283.4901960784314,-312.5098039215686,-252.49019607843138,121.64,37.29,87.29
23.2,263.01960784313724,232.0,55.509803921568626,169.8,65.64,108.11
23.25,-315.4901960784314,264.0,39.509803921568626,115.3,113.14,88.44
23.3,-252.49019607843138,183.0,147.50980392156862,43.87,126.02,68.84
23.35,-156.49019607843138,68.0,270.5098039215686,45.65,110.06,53.62
23.4,-77.49019607843137,248.0,-249.0,46.14,89.9,50.68
23.45,-315.4901960784314,-296.5098039215686,-187.0,23.53,57.87,56.14
23.5,263.01960784313724,264.0,-110.0,41.35,20.7,66.04
23.55,-236.49019607843138,-296.5098039215686,-79.0,43.8,-18.28,77.49
23.6,-54.98039215686274,313.0,-80.0,25.95,-43.72,81.2
23.65,-6.980392156862745,232.0,-126.0,7.01,-59.47,79.2
23.7,184.01960784313727,215.0,-203.0,-24.69,-69.41,62.75
23.75,263.01960784313724,150.0,-295.0,-80.62,-84.74,36.47
23.8,-315.4901960784314,68.0,132.50980392156862,31.48,-102.66,73.81
23.85,-299.4901960784314,-29.0,-160.49019607843138,178.3,-49.99,80.53
23.9,-315.4901960784314,52.0,-9.980392156862745,-9.88,-23.11,18.72
23.95,-315.4901960784314,286.5098039215686,-221.49019607843138,-24.93,-30.11,-46.51
24.0,-252.49019607843138,-127.0,-6.490196078431373,-50.55,-24.51,-90.5
24.05,-315.4901960784314,-45.0,39.509803921568626,135.53,-40.36,-125.61
24.1,263.01960784313724,-182.50980392156862,-67.49019607843137,56.82,-40.5,-127.39
24.15,184.01960784313727,52.0,132.50980392156862,-16.95,-8.58,-100.34
24.2,-77.49019607843137,101.0,163.50980392156862,-25.49,16.29,-48.71
24.25,-252.49019607843138,232.0,163.50980392156862,-27.7,23.89,18.3
24.3,-267.4901960784314,215.0,178.50980392156862,-2.39,11.74,52.74
24.35,-252.49019607843138,183.0,193.50980392156862,33.75,-22.44,48.12
24.4,-220.49019607843138,297.0,178.50980392156862,84.26,-61.68,0.66
24.45,-220.49019607843138,313.0,116.50980392156863,158.6,-31.61,27.82
24.5,-204.49019607843138,-280.5098039215686,-36.490196078431374,175.08,8.07,89.67
24.55,-204.49019607843138,232.0,193.50980392156862,123.14,52.55,97.37
24.6,-124.49019607843137,166.0,86.50980392156863,89.44,71.87,110.18
24.65,-252.49019607843138,133.0,147.50980392156862,102.91,71.21,108.29
24.7,-315.4901960784314,264.0,316.5098039215686,118.59,69.21,91.98
24.75,25.019607843137255,264.0,-279.0,86.85,58.85,69.75
24.8,168.01960784313727,199.0,-233.0,60.81,51.57,58.55
24.85,-156.49019607843138,199.0,-203.0,20.24,40.34,52.71
24.9,152.01960784313727,199.0,-172.0,-8.06,16.08,57.5
24.95,-70.98039215686275,166.0,-141.0,-1.31,-21.32,57.96
25.0,216.01960784313727,183.0,-203.0,7.92,-44.74,45.53
25.05,-315.4901960784314,117.0,301.5098039215686,-27.24,-59.23,8.99
25.1,-283.4901960784314,3.0,270.5098039215686,-24.34,-86.07,3.92
25.15,-299.4901960784314,-45.0,-113.49019607843137,85.69,-74.77,28.28
25.2,-315.4901960784314,-62.0,-267.4901960784314,46.88,-15.3,15.15
25.25,311.01960784313724,-209.0,-67.49019607843137,-124.37,12.86,-57.5
25.3,-283.4901960784314,286.5098039215686,101.50980392156863,-75.61,16.54,-77.45
25.35,200.01960784313727,19.0,39.509803921568626,-48.66,6.98,-80.7
25.4,-54.98039215686274,117.0,86.50980392156863,-44.71,-11.66,-82.07
25.45,-108.49019607843137,52.0,147.50980392156862,-25.53,-25.59,-82.07
25.5,129.50980392156862,117.0,132.50980392156862,-19.86,-35.22,-81.09
25.55,-124.49019607843137,101.0,132.50980392156862,-24.16,-42.81,-78.32
25.6,-299.4901960784314,133.0,178.50980392156862,-26.72,-46.0,-72.16
25.65,-267.4901960784314,183.0,132.50980392156862,-30.22,-47.96,-52.32
25.7,-299.4901960784314,199.0,86.50980392156863,35.99,-41.48,-39.75
25.75,295.01960784313724,313.0,-52.490196078431374,86.57,14.05,56.31
25.8,295.01960784313724,-280.5098039215686,-113.49019607843137,114.95,52.1,124.81
25.85,-299.4901960784314,248.0,-6.490196078431373,123.6,87.66,145.18
25.9,-236.49019607843138,248.0,-36.490196078431374,68.72,116.74,147.03
25.95,-236.49019607843138,84.0,163.50980392156862,51.11,99.17,135.83
26.0,-204.49019607843138,133.0,286.5098039215686,94.93,64.8,93.48
26.05,-93.49019607843137,183.0,316.5098039215686,106.45,43.98,59.88
26.1,263.01960784313724,281.0,-249.0,71.76,33.51,41.02
26.15,247.01960784313727,215.0,-172.0,29.34,27.53,37.73
26.2,-267.4901960784314,248.0,-172.0,-4.11,13.7,43.64
26.25,152.01960784313727,215.0,-203.0,-11.42,-0.95,43.57
26.3,41.01960784313726,133.0,-264.0,-54.54,-13.52,19.88
26.35,152.01960784313727,84.0,316.5098039215686,-95.46,-49.71,8.43
26.4,263.01960784313724,150.0,301.5098039215686,15.97,-70.85,28.63
26.45,-315.4901960784314,264.0,-52.490196078431374,117.86,-67.52,35.14
26.5,-283.4901960784314,313.0,-113.49019607843137,8.38,-85.55,-52.84
26.55,-299.4901960784314,232.0,86.50980392156863,-25.39,-84.71,-95.4
26.6,-299.4901960784314,215.0,-21.49019607843137,1.1,-60.59,-95.05
26.65,-236.49019607843138,232.0,-36.490196078431374,-55.24,-35.18,-101.42
26.7,-283.4901960784314,183.0,70.50980392156863,-116.84,-12.47,-105.83
26.75,-315.4901960784314,281.0,163.50980392156862,-94.72,-7.43,-80.74
26.8,136.01960784313727,199.0,132.50980392156862,-46.81,-3.68,-36.81
26.85,-6.980392156862745,117.0,70.50980392156863,10.69,1.98,6.93
26.9,-172.49019607843138,-62.0,86.50980392156863,25.7,6.28,37.13
26.95,-283.4901960784314,-45.0,101.50980392156863,19.26,1.98,58.83
27.0,295.01960784313724,-209.0,86.50980392156863,51.01,-23.98,57.61
27.05,-204.49019607843138,-45.0,101.50980392156863,94.55,-42.53,34.23
27.1,-61.490196078431374,68.0,24.50980392156863,106.27,-32.1,45.92
27.15,-124.49019607843137,3.0,70.50980392156863,154.29,-13.41,74.06
27.2,-220.49019607843138,35.0,132.50980392156862,163.29,18.18,54.56
27.25,-299.4901960784314,35.0,132.50980392156862,111.7,49.19,32.06
27.3,-267.4901960784314,68.0,224.50980392156862,56.33,71.45,27.86
27.35,-220.49019607843138,183.0,301.5098039215686,23.95,70.16,31.95
27.4,-220.49019607843138,166.0,-279.0,48.8,54.76,38.43
27.45,-252.49019607843138,133.0,-264.0,87.51,40.27,47.28
27.5,295.01960784313724,232.0,-233.0,64.87,28.26,52.53
27.55,-133.98039215686273,-247.50980392156862,-141.0,40.37,11.6,56.98
27.6,-140.49019607843138,313.0,-126.0,12.82,-2.07,53.97
27.65,-283.4901960784314,199.0,-156.0,-31.9,-16.91,45.67
27.7,9.019607843137255,150.0,-126.0,28.5,-57.55,62.68
27.75,136.01960784313727,68.0,-295.0,54.96,-83.31,53.27
27.8,152.01960784313727,183.0,239.50980392156862,90.17,-80.86,70.14
27.85,247.01960784313727,281.0,-52.490196078431374,111.84,-39.1,118.86
27.9,-252.49019607843138,313.0,55.509803921568626,98.05,0.37,103.32
27.95,-220.49019607843138,215.0,9.509803921568627,-49.26,10.45,32.9
28.0,-283.4901960784314,117.0,55.509803921568626,-18.53,3.06,2.62
28.05,-315.4901960784314,52.0,-6.490196078431373,45.02,-6.9,-20.64
28.1,279.01960784313724,101.0,9.509803921568627,39.39,-19.92,-55.5
28.15,-38.98039215686274,52.0,132.50980392156862,15.03,-23.95,-86.65
28.2,279.01960784313724,3.0,147.50980392156862,-19.68,-26.22,-91.03
28.25,-77.49019607843137,-45.0,209.50980392156862,-12.47,-31.68,-82.42
28.3,-188.49019607843138,303.5098039215686,193.50980392156862,10.69,-35.36,-76.68
28.35,295.01960784313724,-241.0,147.50980392156862,0.64,-30.25,-63.24
28.4,-283.4901960784314,52.0,163.50980392156862,-20.24,-23.77,-39.54
28.45,-204.49019607843138,19.0,178.50980392156862,-2.5,-45.09,-28.55
28.5,-267.4901960784314,19.0,101.50980392156863,81.88,-21.85,-12.0
28.55,-315.4901960784314,52.0,-160.49019607843138,147.82,16.85,66.18
28.6,-252.49019607843138,117.0,55.509803921568626,150.51,49.51,94.39
28.65,-172.49019607843138,199.0,116.50980392156863,76.91,92.03,86.45
28.7,-188.49019607843138,232.0,116.50980392156863,7.15,111.81,102.55
28.75,-315.4901960784314,199.0,-310.0,2.95,90.91,103.81
28.8,-117.98039215686275,-296.5098039215686,-264.0,44.01,54.41,89.28
28.85,-93.49019607843137,-247.50980392156862,-249.0,94.55,27.74,76.58
28.9,-108.49019607843137,-231.50980392156862,-233.0,97.07,18.29,69.3
28.95,-22.980392156862745,117.0,-203.0,40.82,16.08,62.16
29.0,136.01960784313727,-62.0,301.5098039215686,-13.45,4.11,55.26
29.05,247.01960784313727,133.0,255.50980392156862,-16.74,-16.0,42.28
29.1,295.01960784313724,248.0,286.5098039215686,-28.05,-41.17,11.65
29.15,311.01960784313724,232.0,-279.0,20.35,-80.44,27.58
29.2,295.01960784313724,183.0,-203.0,96.82,-42.5,43.36
29.25,279.01960784313724,150.0,-187.0,-43.17,-24.37,-11.44
29.3,311.01960784313724,117.0,-187.0,-80.16,-32.91,-73.77
29.35,263.01960784313724,150.0,-264.0,-21.4,-45.4,-100.79
29.4,-315.4901960784314,68.0,286.5098039215686,-10.86,-50.06,-112.52
29.45,88.01960784313725,52.0,162.50980392156862,-42.57,-30.53,-119.31
29.5,-77.49019607843137,-45.0,-52.490196078431374,-63.64,-10.09,-101.39
29.55,-108.49019607843137,-62.0,-160.49019607843138,-68.02,1.24,-69.4
29.6,-220.49019607843138,-192.0,-6.490196078431373,-39.18,8.98,-34.75
29.65,-140.49019607843138,-78.0,-6.490196078431373,-28.78,8.56,3.22
29.7,-172.49019607843138,101.0,-36.490196078431374,-37.36,-14.32,-1.71
29.75,-283.4901960784314,117.0,-52.490196078431374,7.29,-19.89,22.15
29.8,-299.4901960784314,117.0,-21.49019607843137,146.84,-31.23,89.28
29.85,-204.49019607843138,166.0,55.509803921568626,259.68,-17.09,116.13
29.9,-188.49019607843138,199.0,70.50980392156863,167.38,41.56,83.23
29.95,-220.49019607843138,248.0,86.50980392156863,42.47,75.93,73.29
30.0,231.01960784313727,297.0,163.50980392156862,27.0,84.51,78.36
30.05,9.019607843137255,-312.5098039215686,-6.490196078431373,63.26,75.65,82.84
30.1,-124.49019607843137,297.0,147.50980392156862,82.16,63.19,81.48
30.15,-315.4901960784314,313.0,193.50980392156862,48.91,49.4,67.48
30.2,-54.98039215686274,199.0,239.50980392156862,4.84,38.94,57.29
30.25,57.01960784313726,52.0,-218.0,-29.1,26.69,54.04
30.3,231.01960784313727,133.0,-187.0,-28.61,8.1,50.08
30.35,295.01960784313724,232.0,-187.0,-17.72,-18.0,31.74
30.4,-299.4901960784314,264.0,-187.0,-11.98,-57.58,-0.59
30.45,-236.49019607843138,248.0,-172.0,38.79,-82.22,4.27
30.5,-236.49019607843138,133.0,-187.0,78.48,-75.26,-10.04
30.55,-220.49019607843138,117.0,-218.0,-4.14,-56.29,-57.81
30.6,-315.4901960784314,117.0,301.5098039215686,-53.35,-49.88,-98.83
30.65,184.01960784313727,117.0,178.50980392156862,-1.41,-54.61,-120.11
30.7,9.019607843137255,19.0,39.509803921568626,18.98,-46.63,-110.84
30.75,-93.49019607843137,-29.0,9.509803921568627,7.85,-22.65,-78.64
30.8,-204.49019607843138,68.0,-160.49019607843138,-4.28,-3.19,-39.79
30.85,311.01960784313724,-127.0,55.509803921568626,1.41,8.0,-4.65
30.9,-220.49019607843138,-94.0,101.50980392156863,11.7,12.55,35.91
30.95,-140.49019607843138,166.0,39.509803921568626,29.17,-5.96,47.77
31.0,-156.49019607843138,166.0,55.509803921568626,-29.9,6.39,77.1
31.05,-236.49019607843138,68.0,132.50980392156862,-27.91,16.64,133.17
31.1,-299.4901960784314,150.0,132.50980392156862,34.94,24.9,135.34
31.15,-220.49019607843138,232.0,70.50980392156863,52.44,65.92,92.12
31.2,-220.49019607843138,232.0,116.50980392156863,40.47,87.06,83.02
31.25,-236.49019607843138,150.0,147.50980392156862,46.25,74.64,92.08
31.3,-156.49019607843138,166.0,132.50980392156862,93.71,48.63,97.72
31.35,-315.4901960784314,248.0,39.509803921568626,99.34,16.4,89.39
31.4,-54.98039215686274,297.0,-160.49019607843138,60.28,-11.84,63.84
31.45,-252.49019607843138,101.0,224.50980392156862,82.02,-24.16,47.0
31.5,295.01960784313724,199.0,101.50980392156863,95.81,-33.36,32.23
31.55,25.019607843137255,264.0,178.50980392156862,71.62,-43.2,14.77
31.6,152.01960784313727,166.0,316.5098039215686,41.63,-57.16,-16.65
31.65,-315.4901960784314,183.0,-264.0,60.88,-61.47,-3.56
31.7,-252.49019607843138,281.0,-218.0,85.1,-68.68,19.74
31.75,-283.4901960784314,313.0,-233.0,82.89,-46.63,-3.77
31.8,-283.4901960784314,281.0,-218.0,59.55,-18.31,-37.48
31.85,-315.4901960784314,248.0,-172.0,29.55,-6.48,-50.71
31.9,-267.4901960784314,215.0,-218.0,44.6,-10.37,-55.43
31.95,-267.4901960784314,232.0,-295.0,78.69,-12.19,-56.94
32.0,311.01960784313724,248.0,224.50980392156862,59.72,-8.86,-52.28
32.05,247.01960784313727,117.0,162.50980392156862,-27.03,-8.97,-37.13
32.1,9.019607843137255,-111.0,39.509803921568626,-8.1,-15.09,-4.61
32.15,-108.49019607843137,-127.0,9.509803921568627,92.52,-14.5,13.33
32.2,-61.490196078431374,35.0,-236.49019607843138,33.75,-10.05,28.84
32.25,-267.4901960784314,-143.0,-36.490196078431374,-54.3,-18.73,30.34
32.3,-140.49019607843138,-258.0,86.50980392156863,-16.11,-43.37,-7.13
32.35,-124.49019607843137,35.0,-36.490196078431374,44.53,12.9,10.78
32.4,-124.49019607843137,150.0,24.50980392156863,22.03,49.26,77.0
32.45,-172.49019607843138,84.0,101.50980392156863,18.04,65.99,96.91
32.5,-299.4901960784314,133.0,86.50980392156863,28.96,79.4,83.93
32.55,-315.4901960784314,183.0,39.509803921568626,29.83,80.97,65.31
32.6,-236.49019607843138,183.0,86.50980392156863,37.15,59.62,49.8
32.65,-267.4901960784314,199.0,55.509803921568626,36.55,35.16,40.53
32.7,-283.4901960784314,183.0,70.50980392156863,68.65,16.68,38.36
32.75,25.019607843137255,281.0,-113.49019607843137,126.57,4.67,43.08
32.8,-236.49019607843138,281.0,70.50980392156863,149.36,-4.84,55.19
32.85,-315.4901960784314,215.0,116.50980392156863,68.54,-22.44,70.98
32.9,9.019607843137255,101.0,147.50980392156862,-15.9,-40.92,77.66
32.95,41.01960784313726,19.0,-310.0,-17.83,-39.07,91.63
33.0,120.01960784313725,166.0,-310.0,29.34,72.22,93.17
33.05,231.01960784313727,232.0,-279.0,89.44,29.98,82.81
33.1,-315.4901960784314,281.0,-203.0,82.82,5.44,90.65
33.15,-236.49019607843138,215.0,-187.0,51.39,-10.51,44.34
33.2,-188.49019607843138,133.0,-172.0,30.46,-28.15,-25.68
33.25,-188.49019607843138,117.0,-233.0,10.48,-49.64,-55.89
33.3,-252.49019607843138,117.0,-280.0,13.24,-74.91,-76.99
33.35,-315.4901960784314,133.0,239.50980392156862,19.09,-104.97,-101.11
33.4,88.01960784313725,84.0,116.50980392156863,75.44,-108.79,-114.34
33.45,-156.49019607843138,-45.0,-160.49019607843138,128.36,-46.14,-106.32
33.5,-315.4901960784314,-13.0,-283.4901960784314,-42.15,3.87,-72.27
33.55,311.01960784313724,270.5098039215686,9.509803921568627,-61.44,23.68,-12.73
33.6,-220.49019607843138,-127.0,-113.49019607843137,12.26,21.05,36.61
33.65,-140.49019607843138,117.0,-113.49019607843137,4.0,16.75,43.85
33.7,-93.49019607843137,52.0,-6.490196078431373,-10.9,15.94,33.04
33.75,-156.49019607843138,35.0,86.50980392156863,-11.53,16.85,75.74
33.8,-188.49019607843138,117.0,70.50980392156863,-12.58,17.69,98.84
33.85,-188.49019607843138,101.0,86.50980392156863,-10.37,11.74,92.78
33.9,-156.49019607843138,68.0,86.50980392156863,-10.65,-1.23,104.26
33.95,-140.49019607843138,84.0,86.50980392156863,-10.86,-20.34,114.52
34.0,-93.49019607843137,101.0,-310.0,29.34,72.22,112.77
34.05,-77.49019607843137,199.0,-279.0,89.44,29.98,90.54
34.1,152.01960784313727,-296.5098039215686,-203.0,82.82,5.44,77.73
34.15,-267.4901960784314,215.0,-187.0,51.39,-10.51,60.48
34.2,247.01960784313727,248.0,-172.0,30.46,-28.15,31.92
34.25,200.01960784313727,183.0,-233.0,10.48,-49.64,3.64
34.3,263.01960784313724,150.0,-280.0,13.24,-74.91,-20.61
34.35,279.01960784313724,183.0,239.50980392156862,19.09,-104.97,-25.26
34.4,-315.4901960784314,150.0,116.50980392156863,75.44,-108.79,6.09
34.45,-267.4901960784314,133.0,-160.49019607843138,128.36,-46.14,24.71
34.5,-220.49019607843138,101.0,-283.4901960784314,-42.15,3.87,2.8
34.55,-220.49019607843138,52.0,9.509803921568627,-61.44,23.68,-12.66
34.6,-315.4901960784314,35.0,-113.49019607843137,12.26,21.05,-22.57
34.65,295.01960784313724,19.0,-113.49019607843137,4.0,16.75,-30.69
34.7,168.01960784313727,-29.0,-6.490196078431373,-10.9,15.94,-32.12
34.75,168.01960784313727,-29.0,86.50980392156863,-11.53,16.85,-28.45
34.8,-29.49019607843137,-78.0,70.50980392156863,-12.58,17.69,-14.31
34.85,-45.490196078431374,3.0,86.50980392156863,-10.37,11.74,-7.45
34.9,-172.49019607843138,-78.0,86.50980392156863,-10.65,-1.23,-5.0
34.95,-204.49019607843138,19.0,86.50980392156863,-10.86,-20.34,-7.13
35.0,-93.49019607843137,101.0,86.50980392156863,34.38,-66.19,-48.05
35.05,-77.49019607843137,199.0,55.509803921568626,73.13,-38.54,-28.94
35.1,152.01960784313727,-296.5098039215686,-129.49019607843138,81.98,-1.69,37.83
35.15,-267.4901960784314,215.0,55.509803921568626,74.11,26.76,81.02
35.2,247.01960784313727,248.0,24.50980392156863,61.26,50.7,111.93
35.25,200.01960784313727,183.0,132.50980392156862,46.25,58.43,134.22
35.3,263.01960784313724,150.0,224.50980392156862,54.65,51.61,138.35
35.35,279.01960784313724,183.0,224.50980392156862,62.63,37.57,125.02
35.4,-315.4901960784314,150.0,286.5098039215686,52.58,25.15,103.74
35.45,-267.4901960784314,133.0,301.5098039215686,37.6,13.77,79.13
35.5,-220.49019607843138,101.0,316.5098039215686,22.13,1.17,42.49
35.55,-220.49019607843138,52.0,301.5098039215686,-3.37,-1.37,9.87
35.6,-315.4901960784314,35.0,209.50980392156862,-10.69,-9.53,-15.36
35.65,295.01960784313724,19.0,70.50980392156863,-14.12,-28.36,-57.11
35.7,168.01960784313727,-29.0,39.509803921568626,-31.62,-41.76,-66.91
35.75,168.01960784313727,-29.0,-36.490196078431374,-13.84,-37.32,-60.12
35.8,-29.49019607843137,-78.0,-37.490196078431374,-16.15,-16.98,-85.43
35.85,-45.490196078431374,3.0,-21.49019607843137,-94.72,-4.31,-111.78
35.9,-172.49019607843138,-78.0,86.50980392156863,-113.52,-1.44,-113.78
35.95,-204.49019607843138,19.0,101.50980392156863,-63.15,-7.95,-97.22
36.0,-172.49019607843138,150.0,70.50980392156863,-34.91,-16.07,-78.57
36.05,-156.49019607843138,133.0,39.509803921568626,-40.26,-15.23,-57.53
36.1,-156.49019607843138,117.0,55.509803921568626,-39.28,-12.36,-39.19
36.15,-172.49019607843138,150.0,55.509803921568626,-45.37,-6.83,-18.96
36.2,-172.49019607843138,133.0,39.509803921568626,-37.22,-10.09,-3.35
36.25,-140.49019607843138,133.0,39.509803921568626,-26.75,-19.26,5.46
36.3,-140.49019607843138,150.0,39.509803921568626,-4.95,-35.29,-1.15
36.35,-140.49019607843138,166.0,-21.49019607843137,17.65,-50.55,-22.88
36.4,-283.4901960784314,215.0,-98.49019607843137,17.02,-24.23,-9.48
36.45,104.01960784313725,183.0,-160.49019607843138,32.25,3.24,59.18
36.5,-172.49019607843138,150.0,-6.490196078431373,103.23,30.96,94.11
36.55,279.01960784313724,264.0,-67.49019607843137,57.62,58.71,93.27
36.6,72.01960784313725,101.0,86.50980392156863,11.95,66.31,102.06
36.65,216.01960784313727,52.0,255.50980392156862,-14.4,79.19,111.23
36.7,216.01960784313727,101.0,193.50980392156862,-60.81,83.39,102.2
36.75,263.01960784313724,3.0,224.50980392156862,-3.06,57.7,85.5
36.8,-188.49019607843138,133.0,147.50980392156862,40.93,38.38,46.51
36.85,-156.49019607843138,133.0,163.50980392156862,20.24,14.86,5.32
36.9,-77.49019607843137,35.0,239.50980392156862,17.16,-7.32,-30.55
36.95,-93.49019607843137,52.0,209.50980392156862,26.82,-19.71,-56.8
37.0,-140.49019607843138,52.0,163.50980392156862,-21.96,-8.83,-91.8
37.05,-188.49019607843138,19.0,132.50980392156862,-88.77,-15.79,-146.15
37.1,-315.4901960784314,-29.0,163.50980392156862,-112.47,-28.22,-152.17
37.15,-54.98039215686274,117.0,39.509803921568626,-17.69,-37.56,-108.32
37.2,-108.49019607843137,183.0,-21.49019607843137,30.6,-26.68,-91.48
37.25,-108.49019607843137,199.0,-36.490196078431374,-97.8,-17.12,-90.4
37.3,-315.4901960784314,3.0,147.50980392156862,-112.68,-18.7,-78.22
37.35,-252.49019607843138,68.0,147.50980392156862,-29.45,-29.23,-65.16
37.4,-124.49019607843137,264.0,55.509803921568626,-21.15,-37.7,-61.7
37.45,-61.490196078431374,166.0,86.50980392156863,-52.27,-39.03,-53.09
37.5,-77.49019607843137,68.0,70.50980392156863,-16.32,-40.61,-24.25
37.55,-124.49019607843137,150.0,-52.490196078431374,6.17,-38.33,-7.17
37.6,-124.49019607843137,150.0,-83.49019607843137,0.5,-28.43,4.41
37.65,-140.49019607843138,101.0,-113.49019607843137,-0.43,-28.32,13.58
37.7,-61.490196078431374,101.0,-83.49019607843137,60.39,-40.26,-17.77
37.75,311.01960784313724,248.0,-129.49019607843138,-8.24,24.38,40.04
37.8,-86.98039215686275,183.0,-83.49019607843137,13.77,30.26,111.65
37.85,-140.49019607843138,101.0,178.50980392156862,135.29,37.26,134.96
37.9,311.01960784313724,-247.50980392156862,9.509803921568627,145.47,54.83,119.42
37.95,200.01960784313727,248.0,209.50980392156862,64.06,63.93,95.72
38.0,216.01960784313727,52.0,316.5098039215686,51.25,42.72,67.37
38.05,279.01960784313724,183.0,-279.0,96.16,17.1,49.45
38.1,-299.4901960784314,313.0,-249.0,135.25,1.59,37.17
38.15,311.01960784313724,-280.5098039215686,-233.0,132.03,2.68,37.83
38.2,247.01960784313727,-312.5098039215686,-187.0,84.26,7.02,50.92
38.25,200.01960784313727,281.0,-126.0,60.25,-8.16,77.17
38.3,231.01960784313727,297.0,-126.0,91.43,-26.75,100.8
38.35,231.01960784313727,-247.50980392156862,-172.0,111.63,-42.15,115.36
38.4,263.01960784313724,-280.5098039215686,-141.0,121.99,-52.82,123.76
38.45,247.01960784313727,-296.5098039215686,-172.0,118.91,-51.42,129.57
38.5,184.01960784313727,297.0,-218.0,80.3,-38.86,131.98
38.55,152.01960784313727,232.0,-249.0,57.55,-28.25,133.94
38.6,168.01960784313727,150.0,-280.0,53.77,-19.54,130.41
38.65,152.01960784313727,133.0,270.5098039215686,52.76,-14.11,116.16
38.7,216.01960784313727,117.0,239.50980392156862,29.66,-26.4,75.04
38.75,247.01960784313727,52.0,209.50980392156862,42.22,-56.22,48.68
38.8,-252.49019607843138,35.0,101.50980392156863,112.96,-89.71,25.16
38.85,2.5098039215686274,68.0,55.509803921568626,142.43,-93.74,-16.79
38.9,-283.4901960784314,84.0,-98.49019607843137,86.25,-74.94,-43.88
38.95,-283.4901960784314,-78.0,24.50980392156863,52.62,-36.13,-56.13
39.0,-283.4901960784314,-62.0,-21.49019607843137,16.78,-13.45,-66.14
39.05,104.01960784313725,-13.0,9.509803921568627,-17.37,3.69,-70.94
39.1,-283.4901960784314,19.0,70.50980392156863,-28.82,12.72,-60.33
39.15,34.509803921568626,84.0,101.50980392156863,-13.7,14.96,-40.17
39.2,-140.49019607843138,183.0,101.50980392156863,9.01,10.13,-14.27
39.25,-299.4901960784314,183.0,132.50980392156862,16.95,1.87,6.47
39.3,-220.49019607843138,199.0,162.50980392156862,8.31,-12.75,9.13
39.35,-156.49019607843138,199.0,163.50980392156862,37.32,-34.69,-6.22
39.4,-220.49019607843138,313.0,86.50980392156863,99.31,-24.75,18.62
39.45,-220.49019607843138,-280.5098039215686,101.50980392156863,153.03,-3.68,71.54
39.5,-236.49019607843138,313.0,178.50980392156862,140.12,27.46,93.17
39.55,-188.49019607843138,-312.5098039215686,178.50980392156862,74.04,59.55,121.97
39.6,-236.49019607843138,150.0,286.5098039215686,69.8,61.79,141.61
39.65,-220.49019607843138,183.0,286.5098039215686,101.62,52.41,138.53
39.7,-220.49019607843138,264.0,316.5098039215686,84.26,43.07,116.51
39.75,168.01960784313727,199.0,-264.0,71.45,28.58,96.39
39.8,311.01960784313724,183.0,-249.0,56.05,19.65,72.76
39.85,-204.49019607843138,166.0,-233.0,31.44,4.78,57.22
39.9,168.01960784313727,150.0,-264.0,18.63,-10.65,44.1
39.95,168.01960784313727,133.0,-295.0,15.76,-23.67,22.01
40.0,200.01960784313727,84.0,286.5098039215686,-19.16,-40.71,-6.4
40.05,247.01960784313727,35.0,178.50980392156862,-15.8,-61.71,-2.2
40.1,295.01960784313724,-13.0,39.509803921568626,66.76,-58.56,4.93
40.15,-252.49019607843138,19.0,-83.49019607843137,40.09,-38.54,-26.8
40.2,-236.49019607843138,-62.0,-6.490196078431373,-75.09,-31.09,-67.61
40.25,-236.49019607843138,-209.0,39.509803921568626,-39.42,-30.14,-71.92
40.3,-299.4901960784314,35.0,-21.49019607843137,7.54,-28.46,-74.33
40.35,263.01960784313724,133.0,-21.49019607843137,-25.7,-20.34,-78.88
40.4,-6.980392156862745,19.0,86.50980392156863,-52.76,-11.31,-67.12
40.45,-188.49019607843138,52.0,116.50980392156863,-34.38,-1.27,-41.85
40.5,-29.49019607843137,150.0,39.509803921568626,-23.36,2.57,-20.36
40.55,-204.49019607843138,133.0,86.50980392156863,-12.79,3.41,-6.71
40.6,-220.49019607843138,166.0,55.509803921568626,-15.34,-0.64,4.48
40.65,-252.49019607843138,133.0,86.50980392156863,-6.94,-20.48,2.24
40.7,-283.4901960784314,133.0,70.50980392156863,64.03,-37.98,-25.79
40.75,-267.4901960784314,281.0,-52.490196078431374,102.77,-6.52,17.25
40.8,-236.49019607843138,281.0,-36.490196078431374,112.29,18.92,63.21
40.85,-140.49019607843138,183.0,116.50980392156863,112.36,43.03,78.89
40.9,-108.49019607843137,248.0,55.509803921568626,79.85,70.4,102.2
40.95,-172.49019607843138,183.0,255.50980392156862,33.72,81.64,120.15
41.0,-283.4901960784314,117.0,301.5098039215686,25.35,69.42,123.62
41.05,25.019607843137255,248.0,-279.0,30.08,49.37,114.9
41.1,-236.49019607843138,232.0,-295.0,43.62,30.4,101.43
41.15,-299.4901960784314,264.0,-279.0,37.46,15.35,83.33
41.2,72.01960784313725,232.0,-249.0,29.76,-1.34,59.39
41.25,168.01960784313727,183.0,316.5098039215686,24.41,-14.18,28.07
41.3,216.01960784313727,133.0,239.50980392156862,-4.63,-29.58,-27.71
41.35,279.01960784313724,166.0,116.50980392156863,-42.01,-46.49,-67.89
41.4,-299.4901960784314,166.0,86.50980392156863,-8.73,-59.58,-55.29
41.45,-236.49019607843138,133.0,-21.49019607843137,14.99,-46.0,-72.13
41.5,-188.49019607843138,84.0,-21.49019607843137,-63.29,-36.3,-113.01
41.55,-188.49019607843138,52.0,86.50980392156863,-96.3,-37.88,-134.88
41.6,-204.49019607843138,35.0,116.50980392156863,-53.91,-39.98,-131.52
41.65,295.01960784313724,-13.0,55.509803921568626,-20.73,-38.4,-105.55
41.7,72.01960784313725,-45.0,24.50980392156863,-39.35,-23.74,-67.02
41.75,-93.49019607843137,-62.0,70.50980392156863,-41.52,-7.88,-31.42
41.8,295.01960784313724,-62.0,39.509803921568626,-25.11,3.55,-2.13
41.85,263.01960784313724,-29.0,-6.490196078431373,-9.85,9.12,15.43
41.9,-283.4901960784314,133.0,-52.490196078431374,-3.69,8.45,25.65
41.95,-252.49019607843138,248.0,-6.490196078431373,6.59,-7.32,19.18
42.0,-220.49019607843138,199.0,9.509803921568627,44.57,6.28,26.7
42.05,-204.49019607843138,166.0,-98.49019607843137,89.58,22.28,80.32
42.1,-204.49019607843138,166.0,70.50980392156863,123.91,31.52,103.49
42.15,-188.49019607843138,150.0,147.50980392156862,102.18,51.01,109.02
42.2,-220.49019607843138,199.0,178.50980392156862,63.05,65.54,124.04
42.25,311.01960784313724,215.0,301.5098039215686,28.36,67.85,136.57
42.3,-6.980392156862745,264.0,-295.0,17.3,56.37,140.8
42.35,295.01960784313724,68.0,-279.0,20.14,37.08,132.68
42.4,-267.4901960784314,133.0,-264.0,25.25,9.22,95.55
42.45,136.01960784313727,199.0,-280.0,13.07,-12.08,58.8
42.5,41.01960784313726,68.0,316.5098039215686,13.84,-33.5,23.31
42.55,136.01960784313727,68.0,255.50980392156862,35.85,-48.8,-9.02
42.6,-299.4901960784314,150.0,116.50980392156863,28.57,-61.68,-61.91
42.65,-236.49019607843138,248.0,55.509803921568626,-7.82,-55.48,-93.48
42.7,-156.49019607843138,199.0,-36.490196078431374,2.39,-49.18,-69.57
42.75,-108.49019607843137,150.0,-36.490196078431374,-38.83,-28.29,-91.17
42.8,-140.49019607843138,133.0,24.50980392156863,-114.81,-20.94,-114.55
42.85,-188.49019607843138,150.0,163.50980392156862,-110.82,-23.67,-120.32
42.9,-315.4901960784314,117.0,162.50980392156862,-13.38,-36.55,-106.08
42.95,-149.98039215686273,52.0,86.50980392156863,5.37,-40.05,-80.63
43.0,263.01960784313724,-45.0,86.50980392156863,1.59,-33.54,-54.14
43.05,-220.49019607843138,133.0,86.50980392156863,-2.36,-20.13,-25.79
43.1,295.01960784313724,-62.0,55.509803921568626,-4.18,-11.49,-0.24
43.15,-252.49019607843138,-225.0,70.50980392156863,13.73,-9.88,24.67
43.2,-156.49019607843138,52.0,39.509803921568626,51.01,-19.22,33.56
43.25,-124.49019607843137,133.0,-6.490196078431373,87.06,8.56,50.05
43.3,-204.49019607843138,52.0,-129.49019607843138,73.83,49.54,103.7
43.35,-236.49019607843138,68.0,86.50980392156863,91.05,67.43,129.15
43.4,-220.49019607843138,84.0,132.50980392156862,96.09,84.93,95.06
43.45,-236.49019607843138,117.0,116.50980392156863,30.46,95.64,72.62
43.5,-188.49019607843138,150.0,301.5098039215686,-22.03,92.38,79.94
43.55,-220.49019607843138,166.0,-249.0,-5.89,65.26,92.57
43.6,184.01960784313727,248.0,-218.0,43.73,33.27,88.16
43.65,104.01960784313725,-296.5098039215686,-233.0,57.97,-5.89,61.11
43.7,-124.49019607843137,313.0,-187.0,41.84,-36.51,33.0
43.75,-299.4901960784314,313.0,-187.0,35.68,-60.07,6.44
43.8,-6.980392156862745,101.0,-249.0,43.97,-77.53,-13.92
43.85,25.019607843137255,68.0,301.5098039215686,51.5,-95.45,-46.75
43.9,184.01960784313727,232.0,178.50980392156862,-1.83,-90.1,-41.75
43.95,216.01960784313727,-296.5098039215686,70.50980392156863,14.89,-87.26,3.67
44.0,311.01960784313724,313.0,55.509803921568626,119.01,-59.86,29.61
44.05,279.01960784313724,232.0,-160.49019607843138,36.55,-20.94,13.26
44.1,311.01960784313724,183.0,-6.490196078431373,-85.13,1.91,-8.18
44.15,-315.4901960784314,166.0,86.50980392156863,-31.62,4.29,-16.13
44.2,-299.4901960784314,183.0,-21.49019607843137,27.45,-3.16,-20.75
44.25,247.01960784313727,117.0,-36.490196078431374,27.7,-4.7,-24.7
44.3,88.01960784313725,117.0,55.509803921568626,33.37,-0.74,-22.95
44.35,-140.49019607843138,19.0,70.50980392156863,36.34,8.94,-11.65
44.4,-252.49019607843138,52.0,101.50980392156863,35.26,12.37,1.22
44.45,-299.4901960784314,-209.0,147.50980392156862,40.54,12.23,16.59
44.5,-140.49019607843138,-225.0,163.50980392156862,37.46,1.94,25.44
44.55,-172.49019607843138,35.0,209.50980392156862,53.84,-24.09,2.24
44.6,-236.49019607843138,166.0,209.50980392156862,128.11,-12.15,34.79
44.65,-220.49019607843138,248.0,39.509803921568626,206.51,6.77,78.12
44.7,-156.49019607843138,248.0,193.50980392156862,211.55,36.28,70.17
44.75,-124.49019607843137,232.0,193.50980392156862,84.89,83.21,47.77
44.8,-156.49019607843138,232.0,301.5098039215686,-24.27,104.35,58.48
44.85,-172.49019607843138,248.0,-233.0,-3.3,82.65,98.91
44.9,-220.49019607843138,281.0,-249.0,56.19,55.11,117.04
44.95,104.01960784313725,-296.5098039215686,-203.0,81.74,28.79,115.15
45.0,-252.49019607843138,-231.50980392156862,86.50980392156863,64.41,7.79,105.31
45.05,-220.49019607843138,-263.5098039215686,163.50980392156862,38.16,-10.4,94.78
45.1,152.01960784313727,199.0,224.50980392156862,31.58,-35.46,74.93
45.15,104.01960784313725,133.0,301.5098039215686,47.72,-51.32,63.03
45.2,216.01960784313727,215.0,316.5098039215686,46.42,-69.17,47.91
45.25,231.01960784313727,248.0,286.5098039215686,6.07,-69.13,67.86
45.3,-315.4901960784314,232.0,-295.0,76.17,-91.25,81.23
45.35,-315.4901960784314,183.0,-233.0,119.29,-76.62,48.23
45.4,-299.4901960784314,166.0,-249.0,0.08,-51.21,-2.3
45.45,-267.4901960784314,133.0,-280.0,-32.95,-34.06,-38.84
45.5,-315.4901960784314,166.0,301.5098039215686,-18.28,-12.12,-59.46
45.55,216.01960784313727,117.0,209.50980392156862,-14.92,4.04,-56.59
45.6,168.01960784313727,52.0,132.50980392156862,3.2,16.33,-49.03
45.65,-156.49019607843138,68.0,55.509803921568626,20.98,25.25,-41.26
45.7,-172.49019607843138,35.0,9.509803921568627,10.9,29.56,-34.78
45.75,-315.4901960784314,-94.0,86.50980392156863,0.54,28.72,-22.64
45.8,-283.4901960784314,-13.0,9.509803921568627,2.25,15.8,-1.88
45.85,-172.49019607843138,68.0,-21.49019607843137,7.43,-23.98,-13.08
45.9,-172.49019607843138,-13.0,70.50980392156863,48.17,-44.53,-12.28
45.95,-156.49019607843138,52.0,101.50980392156863,146.52,-38.44,42.42
46.0,-188.49019607843138,84.0,70.50980392156863,195.7,-12.64,76.79
46.05,-204.49019607843138,101.0,86.50980392156863,121.92,22.35,81.93
46.1,-188.49019607843138,117.0,86.50980392156863,34.31,50.63,97.54
46.15,-204.49019607843138,117.0,86.50980392156863,28.54,48.14,111.26
46.2,-172.49019607843138,117.0,101.50980392156863,63.36,37.43,119.21
46.25,-156.49019607843138,117.0,101.50980392156863,85.06,22.98,115.6
46.3,184.01960784313727,232.0,24.50980392156863,67.21,9.89,90.44
46.35,184.01960784313727,264.0,-52.490196078431374,44.99,-3.96,63.49
46.4,-204.49019607843138,183.0,116.50980392156863,34.59,-18.52,40.67
46.45,295.01960784313724,133.0,132.50980392156862,31.69,-31.82,20.16
46.5,136.01960784313727,101.0,270.5098039215686,20.94,-41.59,1.33
46.55,200.01960784313727,199.0,316.5098039215686,3.48,-52.72,6.54
46.6,279.01960784313724,248.0,-295.0,55.52,-55.13,20.58
46.65,-315.4901960784314,248.0,-279.0,65.6,-34.66,8.01
46.7,-267.4901960784314,199.0,-203.0,-20.49,-17.68,-12.87
46.75,-283.4901960784314,183.0,-218.0,-34.94,-12.82,-17.95
46.8,-236.49019607843138,166.0,-203.0,14.15,-10.47,-22.74
46.85,-188.49019607843138,166.0,-249.0,-7.12,-9.74,-39.61
46.9,-236.49019607843138,183.0,270.5098039215686,-12.44,-12.15,-51.48
46.95,-315.4901960784314,101.0,163.50980392156862,-3.83,-16.04,-55.12
47.0,231.01960784313727,-29.0,55.509803921568626,-53.74,-14.15,-49.1
47.05,-70.98039215686275,-45.0,-36.490196078431374,10.37,-12.89,-35.17
47.1,-220.49019607843138,19.0,-36.490196078431374,63.4,-11.38,-16.41
47.15,-124.49019607843137,117.0,-144.49019607843138,-59.02,-6.06,4.86
47.2,311.01960784313724,-78.0,116.50980392156863,-124.44,-15.69,7.91
47.25,-299.4901960784314,-45.0,132.50980392156862,-23.22,-42.53,-22.64
47.3,-204.49019607843138,199.0,86.50980392156863,18.46,-1.62,27.02
47.35,-172.49019607843138,248.0,101.50980392156863,-6.0,37.85,80.92
47.4,-188.49019607843138,101.0,193.50980392156862,10.76,69.0,88.62
47.45,-220.49019607843138,150.0,147.50980392156862,20.21,80.59,83.19
47.5,-204.49019607843138,150.0,101.50980392156863,16.46,69.6,86.83
47.55,-204.49019607843138,101.0,116.50980392156863,22.76,45.48,98.45
47.6,-204.49019607843138,101.0,86.50980392156863,28.71,29.14,103.6
47.65,-124.49019607843137,117.0,86.50980392156863,25.53,14.72,93.97
47.7,-93.49019607843137,101.0,101.50980392156863,44.78,-0.46,74.3
47.75,-283.4901960784314,166.0,70.50980392156863,107.81,-23.32,59.39
47.8,120.01960784313725,232.0,-21.49019607843137,116.74,-51.74,42.21
47.85,-315.4901960784314,150.0,101.50980392156863,95.84,-63.74,20.51
47.9,279.01960784313724,166.0,163.50980392156862,49.47,-60.94,1.96
47.95,184.01960784313727,133.0,224.50980392156862,23.92,-56.57,-31.81
48.0,184.01960784313727,-29.0,55.509803921568626,-53.74,-45.93,-53.89
48.05,247.01960784313727,-45.0,-36.490196078431374,10.37,-40.61,-27.05
48.1,-315.4901960784314,19.0,-36.490196078431374,63.4,-16.46,-43.78
48.15,-252.49019607843138,117.0,-144.49019607843138,-59.02,10.69,-70.34
48.2,-220.49019607843138,-78.0,116.50980392156863,-124.44,20.95,-66.11
48.25,-236.49019607843138,-45.0,132.50980392156862,-23.22,12.97,-43.32
48.3,-267.4901960784314,199.0,86.50980392156863,18.46,1.77,-30.97
48.35,-267.4901960784314,248.0,101.50980392156863,-6.0,-3.65,-24.04
48.4,311.01960784313724,101.0,193.50980392156862,10.76,-6.97,-12.91
48.45,104.01960784313725,150.0,147.50980392156862,20.21,-5.54,-0.03
48.5,136.01960784313727,150.0,101.50980392156863,16.46,-1.02,12.91
48.55,-29.49019607843137,101.0,116.50980392156863,22.76,-0.15,29.71
48.6,-124.49019607843137,101.0,86.50980392156863,28.71,0.33,36.12
48.65,-267.4901960784314,117.0,86.50980392156863,25.53,-11.38,24.6
48.7,-172.49019607843138,101.0,101.50980392156863,44.78,-41.27,-10.39
48.75,-108.49019607843137,166.0,70.50980392156863,107.81,-21.85,7.31
48.8,-204.49019607843138,232.0,-21.49019607843137,116.74,18.81,66.46
48.85,-252.49019607843138,150.0,101.50980392156863,95.84,46.36,80.74
48.9,-267.4901960784314,166.0,163.50980392156862,49.47,64.56,78.01
48.95,-252.49019607843138,133.0,224.50980392156862,23.92,62.35,78.36
49.0,-252.49019607843138,150.0,-310.0,48.66,50.07,89.18
49.05,-172.49019607843138,232.0,316.5098039215686,68.58,31.83,96.7
49.1,-77.49019607843137,215.0,-264.0,81.53,11.92,92.26
49.15,184.01960784313727,199.0,-249.0,76.24,-3.61,75.46
49.2,184.01960784313727,199.0,-218.0,49.36,-15.62,57.99
49.25,-267.4901960784314,117.0,-218.0,22.27,-33.68,37.9
49.3,216.01960784313727,101.0,-279.0,29.03,-40.99,24.74
49.35,184.01960784313727,133.0,316.5098039215686,28.33,-30.53,14.45
49.4,216.01960784313727,84.0,147.50980392156862,-28.5,-27.8,-19.45
49.45,-315.4901960784314,-29.0,147.50980392156862,-73.41,-33.19,-13.05
49.5,-220.49019607843138,-45.0,24.50980392156863,58.92,-50.69,16.2
49.55,-156.49019607843138,52.0,-52.490196078431374,92.06,-34.1,-14.27
49.6,-172.49019607843138,35.0,-144.49019607843138,-49.4,-11.63,-52.46
49.65,-188.49019607843138,-192.0,101.50980392156863,-89.33,-8.16,-65.72
49.7,-236.49019607843138,-29.0,55.509803921568626,8.34,-21.25,-66.74
49.75,-283.4901960784314,215.0,-52.490196078431374,39.11,-27.55,-57.29
49.8,311.01960784313724,133.0,24.50980392156863,13.21,-11.0,-40.66
49.85,279.01960784313724,68.0,55.509803921568626,1.31,8.94,-14.76
49.9,-70.98039215686275,133.0,70.50980392156863,-6.45,26.27,10.57
49.95,-267.4901960784314,101.0,55.509803921568626,-13.21,32.71,35.56
50.0,-124.49019607843137,232.0,86.50980392156863,-9.36,22.94,52.81
50.05,-299.4901960784314,166.0,147.50980392156862,9.01,-13.59,29.99
50.1,-283.4901960784314,-45.0,163.50980392156862,78.9,-39.77,-9.83
50.15,-188.49019607843138,166.0,55.509803921568626,123.6,-4.77,20.4
50.2,-108.49019607843137,-312.5098039215686,-6.490196078431373,71.55,36.14,81.44
50.25,-156.49019607843138,199.0,239.50980392156862,49.89,55.74,96.25
50.3,-252.49019607843138,166.0,193.50980392156862,38.37,56.61,95.69
50.35,263.01960784313724,52.0,255.50980392156862,12.16,51.99,98.14
50.4,231.01960784313727,-45.0,316.5098039215686,3.16,33.34,104.05
50.45,311.01960784313724,3.0,-249.0,29.69,10.59,101.64
50.5,-252.49019607843138,84.0,-279.0,45.79,-12.43,74.51
50.55,-93.49019607843137,117.0,-295.0,27.91,-28.43,37.13
50.6,-93.49019607843137,183.0,-279.0,4.46,-41.73,3.88
50.65,247.01960784313727,313.0,301.5098039215686,2.53,-53.45,-19.24
50.7,263.01960784313724,232.0,193.50980392156862,21.64,-61.22,-40.52
50.75,72.01960784313725,101.0,116.50980392156863,29.97,-59.54,-57.22
50.8,120.01960784313725,166.0,86.50980392156863,19.79,-63.88,-85.92
50.85,263.01960784313724,264.0,70.50980392156863,-21.78,-53.98,-99.04
50.9,311.01960784313724,281.0,9.509803921568627,-53.77,-34.59,-63.1
50.95,-267.4901960784314,215.0,132.50980392156862,36.87,-20.76,-37.55
51.0,-220.49019607843138,150.0,55.509803921568626,-11.53,-0.71,-33.63
51.05,-188.49019607843138,117.0,132.50980392156862,-122.48,11.81,-22.57
51.1,-172.49019607843138,117.0,286.5098039215686,-74.95,2.12,-6.57
51.15,-220.49019607843138,84.0,193.50980392156862,27.91,-22.86,7.49
51.2,-252.49019607843138,52.0,101.50980392156863,89.72,-41.62,20.47
51.25,-299.4901960784314,-45.0,101.50980392156863,106.41,-20.52,35.0
51.3,136.01960784313727,-62.0,55.509803921568626,53.21,19.27,48.61
51.35,-267.4901960784314,-13.0,55.509803921568626,-6.8,51.85,61.91
51.4,-29.49019607843137,84.0,116.50980392156863,-23.5,59.38,70.14
51.45,311.01960784313724,-13.0,147.50980392156862,6.14,45.73,63.17
51.5,263.01960784313724,-94.0,101.50980392156863,31.37,6.7,32.79
51.55,-236.49019607843138,166.0,178.50980392156862,80.79,-43.06,-27.5
51.6,-124.49019607843137,-280.5098039215686,132.50980392156862,146.24,-43.62,-51.72
51.65,-236.49019607843138,199.0,-6.490196078431373,139.35,-5.71,-39.16
51.7,-252.49019607843138,101.0,147.50980392156862,13.17,49.16,-4.44
51.75,-236.49019607843138,150.0,193.50980392156862,-19.51,68.16,41.37
51.8,-204.49019607843138,150.0,286.5098039215686,14.68,65.54,81.69
51.85,-267.4901960784314,117.0,270.5098039215686,56.85,55.77,104.68
51.9,-252.49019607843138,117.0,286.5098039215686,58.67,44.36,109.16
51.95,-188.49019607843138,133.0,-295.0,30.71,26.3,91.14
52.0,279.01960784313724,264.0,-249.0,12.3,5.34,68.77
52.05,25.019607843137255,232.0,-249.0,16.18,-14.88,53.97
52.1,311.01960784313724,52.0,316.5098039215686,28.12,-27.8,45.78
52.15,200.01960784313727,232.0,239.50980392156862,30.39,-32.1,35.07
52.2,88.01960784313725,150.0,178.50980392156862,-11.28,-31.33,-9.65
52.25,136.01960784313727,117.0,147.50980392156862,-63.85,-37.7,-64.36
52.3,263.01960784313724,232.0,86.50980392156863,-52.65,-48.76,-70.76
52.35,-299.4901960784314,232.0,55.509803921568626,29.06,-46.59,-63.76
52.4,-220.49019607843138,215.0,9.509803921568627,-11.49,-21.6,-85.15
52.45,-204.49019607843138,183.0,70.50980392156863,-163.99,-3.26,-94.7
52.5,-188.49019607843138,133.0,239.50980392156862,-107.43,-16.04,-75.94
52.55,-172.49019607843138,150.0,147.50980392156862,39.07,-36.34,-52.91
52.6,-236.49019607843138,133.0,-6.490196078431373,64.38,-43.55,-37.41
52.65,184.01960784313727,68.0,101.50980392156863,14.85,-28.99,-20.15
52.7,152.01960784313727,-45.0,86.50980392156863,17.34,-7.11,9.76
52.75,-140.49019607843138,35.0,39.509803921568626,25.18,5.62,30.69
52.8,-156.49019607843138,84.0,39.509803921568626,31.55,11.08,44.69
52.85,247.01960784313727,-160.0,55.509803921568626,42.43,12.51,53.97
52.9,311.01960784313724,3.0,55.509803921568626,51.01,1.87,47.6
52.95,-172.49019607843138,215.0,101.50980392156863,124.3,-20.41,13.33
53.0,-252.49019607843138,68.0,70.50980392156863,129.62,14.12,25.65
53.05,-252.49019607843138,35.0,-6.490196078431373,83.77,46.74,69.09
53.1,-252.49019607843138,150.0,270.5098039215686,108.3,65.43,75.53
53.15,-220.49019607843138,133.0,147.50980392156862,51.32,86.82,68.11
53.2,-204.49019607843138,101.0,-310.0,-2.64,86.82,75.81
53.25,-220.49019607843138,117.0,-249.0,17.69,69.6,86.66
53.3,-204.49019607843138,117.0,-249.0,40.23,45.24,92.29
53.35,-140.49019607843138,133.0,-218.0,49.43,16.22,83.23
53.4,-156.49019607843138,199.0,-203.0,42.99,-6.8,65.34
53.45,136.01960784313727,281.0,-187.0,20.38,-33.12,43.01
53.5,136.01960784313727,199.0,-203.0,20.42,-53.63,24.99
53.55,-315.4901960784314,133.0,-264.0,27.8,-63.5,8.85
53.6,-299.4901960784314,183.0,255.50980392156862,6.21,-67.21,-17.53
53.65,247.01960784313727,166.0,116.50980392156863,-50.24,-64.65,-7.62
53.7,216.01960784313727,150.0,86.50980392156863,45.79,-64.06,2.34
53.75,311.01960784313724,183.0,-36.490196078431374,59.13,-44.95,-21.73
53.8,-299.4901960784314,215.0,-98.49019607843137,-70.96,-25.42,-48.19
53.85,-267.4901960784314,232.0,39.509803921568626,-53.95,-22.83,-41.64
53.9,-315.4901960784314,199.0,-21.49019607843137,63.71,-30.88,-34.4
53.95,311.01960784313724,166.0,-83.49019607843137,52.13,-21.11,-39.79
54.0,311.01960784313724,150.0,316.5098039215686,16.85,-10.05,-41.12
54.05,-283.4901960784314,117.0,286.5098039215686,37.01,-0.67,-28.9
54.1,-315.4901960784314,84.0,239.50980392156862,44.64,10.55,-9.3
54.15,88.01960784313725,35.0,178.50980392156862,31.86,27.0,18.2
54.2,295.01960784313724,3.0,39.509803921568626,26.05,32.29,37.06
54.25,279.01960784313724,35.0,-52.490196078431374,26.23,33.86,54.42
54.3,216.01960784313727,-143.0,39.509803921568626,30.32,20.14,57.61
54.35,311.01960784313724,-78.0,-21.49019607843137,48.1,-16.21,30.9
54.4,-77.49019607843137,35.0,39.509803921568626,101.16,-28.25,11.27
54.45,49.509803921568626,35.0,132.50980392156862,109.56,6.35,53.9
54.5,-13.490196078431373,117.0,132.50980392156862,88.84,32.18,99.43
54.55,-156.49019607843138,166.0,101.50980392156863,96.4,40.3,109.16
54.6,295.01960784313724,133.0,70.50980392156863,92.31,43.91,82.84
54.65,247.01960784313727,84.0,70.50980392156863,28.26,38.48,52.74
54.7,-315.4901960784314,84.0,86.50980392156863,20.98,23.96,51.55
54.75,-283.4901960784314,101.0,101.50980392156863,44.22,7.93,55.51
54.8,-236.49019607843138,101.0,147.50980392156862,53.18,-9.35,53.79
54.85,-188.49019607843138,84.0,209.50980392156862,44.15,-21.25,54.18
54.9,-236.49019607843138,150.0,224.50980392156862,40.47,-33.96,53.72
54.95,184.01960784313727,248.0,101.50980392156863,40.4,-44.7,45.15
55.0,-188.49019607843138,215.0,209.50980392156862,42.08,-56.15,29.71
55.05,-172.49019607843138,248.0,224.50980392156862,35.54,-61.05,2.94
55.1,168.01960784313727,248.0,286.5098039215686,-15.27,-52.82,-16.41
55.15,231.01960784313727,133.0,-295.0,2.95,-38.05,4.76
55.2,263.01960784313724,232.0,316.5098039215686,33.61,-2.11,20.79
55.25,-315.4901960784314,183.0,-295.0,-27.94,18.11,13.51
55.3,-315.4901960784314,183.0,301.5098039215686,-27.0,19.51,-2.27
55.35,-283.4901960784314,150.0,-310.0,8.55,12.34,-19.56
55.4,-267.4901960784314,133.0,-310.0,14.01,-16.77,-56.13
55.45,-283.4901960784314,117.0,301.5098039215686,47.79,-44.35,-89.1
55.5,-299.4901960784314,101.0,301.5098039215686,78.59,-58.49,-102.37
55.55,311.01960784313724,101.0,209.50980392156862,77.75,-39.87,-78.67
55.6,168.01960784313727,52.0,147.50980392156862,37.81,10.31,-13.33
55.65,-86.98039215686275,19.0,86.50980392156863,12.54,46.6,52.6
55.7,-156.49019607843138,35.0,55.509803921568626,6.84,62.74,85.08
55.75,-61.490196078431374,133.0,55.509803921568626,-1.83,67.64,98.24
55.8,-267.4901960784314,-62.0,178.50980392156862,-14.15,53.29,92.29
55.85,-283.4901960784314,-62.0,209.50980392156862,-8.41,11.5,56.63
55.9,-140.49019607843138,117.0,116.50980392156863,41.45,-19.01,31.46
55.95,-140.49019607843138,150.0,101.50980392156863,88.18,-22.83,58.52
56.0,-188.49019607843138,52.0,193.50980392156862,132.77,-29.2,70.49
56.05,-220.49019607843138,35.0,178.50980392156862,131.65,-18.87,61.53
56.1,-188.49019607843138,52.0,132.50980392156862,86.95,-9.74,58.2
56.15,-172.49019607843138,52.0,116.50980392156863,83.45,-5.57,68.7
56.2,-220.49019607843138,35.0,116.50980392156863,74.18,-6.24,77.98
56.25,-188.49019607843138,52.0,116.50980392156863,78.34,-9.67,78.82
56.3,-156.49019607843138,84.0,116.50980392156863,76.38,-12.57,70.77
56.35,200.01960784313727,215.0,9.509803921568627,42.68,-14.15,51.9
56.4,152.01960784313727,215.0,-83.49019607843137,28.12,-20.9,31.74
56.45,-140.49019607843138,133.0,147.50980392156862,28.36,-28.39,12.21
56.5,295.01960784313724,166.0,86.50980392156863,28.96,-25.87,-1.71
56.55,72.01960784313725,-263.5098039215686,9.509803921568627,3.02,-19.57,-22.46
56.6,168.01960784313727,-100.50980392156863,-67.49019607843137,-53.91,-11.84,-12.91
56.65,136.01960784313727,30.49019607843137,-175.49019607843138,17.09,-3.58,32.51
56.7,-22.980392156862745,177.49019607843138,-267.4901960784314,72.15,15.77,25.62
56.75,88.01960784313725,-84.50980392156863,-129.49019607843138,-30.71,22.21,-23.3
56.8,231.01960784313727,-214.50980392156862,-52.490196078431374,-97.21,17.38,-45.04
56.85,-140.49019607843138,101.0,55.509803921568626,-12.96,2.43,-34.68
56.9,81.50980392156863,-29.0,70.50980392156863,24.62,-11.45,-34.43
56.95,208.50980392156862,-290.0,101.50980392156863,-12.16,-11.31,-41.22
57.0,256.5098039215686,221.50980392156862,163.50980392156862,50.55,21.26,-36.32
57.05,304.5098039215686,107.50980392156863,101.50980392156863,5.09,-5.29,-24.63
57.1,-306.0,41.509803921568626,39.509803921568626,43.94,-18.21,-18.16
57.15,-195.0,107.50980392156863,-175.49019607843138,-6.21,-8.69,-13.08
57.2,-259.0,41.509803921568626,-67.49019607843137,-19.3,-2.95,-9.55
57.25,-195.0,90.50980392156863,-67.49019607843137,-8.03,-8.79,-28.69
57.3,-52.0,74.50980392156863,-144.49019607843138,-4.81,-11.66,-71.64
57.35,-36.0,58.509803921568626,-160.49019607843138,-9.92,-8.34,-29.08
57.4,-36.0,-7.490196078431373,-144.49019607843138,-4.95,-1.62,37.73
57.45,-84.0,41.509803921568626,-221.49019607843138,-22.1,2.89,55.37
57.5,-100.0,9.509803921568627,-160.49019607843138,-20.38,9.43,87.67
57.55,-131.0,58.509803921568626,-113.49019607843137,-139.7,1.24,163.66
57.6,-163.0,9.509803921568627,70.50980392156863,-187.54,-17.3,211.75
57.65,-211.0,172.50980392156862,132.50980392156862,-207.04,-50.55,209.02
57.7,-195.0,-307.0,163.50980392156862,-197.76,-100.84,189.73
57.75,-275.0,-274.0,-295.0,-211.66,-154.29,158.72
57.8,18.50980392156863,84.0,70.50980392156863,-209.14,-186.07,130.69
57.85,-236.49019607843138,281.0,39.509803921568626,-121.36,-218.76,95.83
57.9,184.01960784313727,-133.50980392156862,-21.49019607843137,-24.09,-252.11,77.31
57.95,-70.98039215686275,-67.50980392156863,-98.49019607843137,153.28,-228.0,53.72
58.0,269.52941176470586,-2.5098039215686274,-283.4901960784314,149.53,-150.05,27.96
58.05,-260.98039215686276,-312.5098039215686,-36.490196078431374,-32.35,-48.1,20.51
58.1,88.01960784313725,-13.0,24.50980392156863,68.79,-3.44,21.14
58.15,-315.4901960784314,281.0,-267.4901960784314,122.65,34.98,-6.96
58.2,-252.49019607843138,313.0,-175.49019607843138,56.89,69.35,-24.42
58.25,-315.4901960784314,52.0,9.509803921568627,15.8,107.96,-16.3
58.3,216.01960784313727,101.0,70.50980392156863,-42.19,142.92,-5.24
58.35,88.01960784313725,84.0,209.50980392156862,-89.68,156.47,-0.17
58.4,-38.98039215686274,84.0,270.5098039215686,-79.81,155.63,1.71
58.45,9.019607843137255,166.0,-310.0,-43.24,136.97,6.02
58.5,72.01960784313725,199.0,-295.0,-35.5,98.09,-0.83
58.55,-197.98039215686273,166.0,-203.0,-28.4,21.12,-15.01
58.6,-77.49019607843137,117.0,-233.0,93.81,-25.63,-33.1
58.65,208.50980392156862,232.0,286.5098039215686,125.56,-53.52,-33.59
58.7,49.509803921568626,166.0,178.50980392156862,27.73,-90.2,-91.03
58.75,18.50980392156863,-29.0,301.5098039215686,7.43,-122.51,-155.29
58.8,97.50980392156863,-62.0,162.50980392156862,106.31,-144.03,-206.63
58.85,-29.49019607843137,117.0,-36.490196078431374,116.67,-141.06,-227.11
58.9,-236.49019607843138,52.0,-52.490196078431374,51.88,-111.1,-233.16
58.95,231.01960784313727,-78.0,-113.49019607843137,34.49,-56.67,-180.98
59.0,184.01960784313727,3.0,-283.4901960784314,149.53,-150.05,-75.49
59.05,-315.4901960784314,19.0,-36.490196078431374,-32.35,-48.1,33.67
59.1,-204.49019607843138,52.0,24.50980392156863,68.79,-3.44,58.27
59.15,-124.49019607843137,133.0,-267.4901960784314,122.65,34.98,55.61
59.2,-108.49019607843137,215.0,-175.49019607843138,56.89,69.35,38.74
59.25,-315.4901960784314,281.0,9.509803921568627,15.8,107.96,30.97
59.3,120.01960784313725,313.0,70.50980392156863,-42.19,142.92,39.16
59.35,-188.49019607843138,313.0,209.50980392156862,-89.68,156.47,63.59
59.4,295.01960784313724,-296.5098039215686,270.5098039215686,-79.81,155.63,96.74
59.45,-6.980392156862745,281.0,-310.0,-43.24,136.97,111.61
59.5,41.01960784313726,183.0,-295.0,-35.5,98.09,78.71
59.55,120.01960784313725,264.0,-203.0,-28.4,21.12,107.97
59.6,216.01960784313727,297.0,-233.0,93.81,-25.63,91.66
59.65,279.01960784313724,281.0,286.5098039215686,125.56,-53.52,40.81
59.7,263.01960784313724,232.0,178.50980392156862,27.73,-90.2,-13.19
59.75,279.01960784313724,166.0,301.5098039215686,7.43,-122.51,-44.44
59.8,-267.4901960784314,101.0,162.50980392156862,106.31,-144.03,-69.82
59.85,-236.49019607843138,117.0,-36.490196078431374,116.67,-141.06,-84.1
59.9,-236.49019607843138,101.0,-52.490196078431374,51.88,-111.1,-82.66
59.95,-220.49019607843138,35.0,-113.49019607843137,34.49,-56.67,-62.5
60.0,184.01960784313727,3.0,-206.49019607843138,11.53,-1.86,-26.07
60.05,-315.4901960784314,19.0,-175.49019607843138,-4.35,23.29,-1.64
60.1,-204.49019607843138,52.0,-67.49019607843137,8.83,27.53,4.83
60.15,-124.49019607843137,133.0,-21.49019607843137,28.08,18.92,-0.59
60.2,-108.49019607843137,215.0,55.509803921568626,40.4,2.68,-11.05
60.25,-315.4901960784314,281.0,70.50980392156863,46.84,26.93,27.54
60.3,120.01960784313725,313.0,55.509803921568626,92.27,42.72,94.46
60.35,-188.49019607843138,313.0,224.50980392156862,124.72,42.19,105.17
60.4,295.01960784313724,-296.5098039215686,239.50980392156862,102.74,52.69,96.91
60.45,-6.980392156862745,281.0,270.5098039215686,47.33,54.02,101.67
60.5,41.01960784313726,183.0,-249.0,46.88,45.13,129.88
60.55,120.01960784313725,264.0,-310.0,91.4,25.81,144.97
60.6,216.01960784313727,297.0,-295.0,105.15,13.56,140.42
60.65,279.01960784313724,281.0,-279.0,84.99,3.73,123.76
60.7,263.01960784313724,232.0,-249.0,48.84,-1.93,108.43
60.75,279.01960784313724,166.0,-264.0,23.29,-14.81,95.3
60.8,-267.4901960784314,101.0,-280.0,34.59,-30.21,81.79
60.85,-236.49019607843138,117.0,286.5098039215686,51.43,-36.16,69.19
60.9,-236.49019607843138,101.0,224.50980392156862,46.35,-30.39,50.19
60.95,-220.49019607843138,35.0,147.50980392156862,-9.01,-30.7,4.23
61.0,-283.4901960784314,-78.0,147.50980392156862,-58.11,-61.08,-69.19
61.05,231.01960784313727,-62.0,55.509803921568626,1.13,-79.25,-79.48
61.1,-140.49019607843138,19.0,-6.490196078431373,56.08,-80.12,-101.14
61.15,-61.490196078431374,52.0,-52.490196078431374,-19.3,-72.53,-133.59
61.2,216.01960784313727,-29.0,-6.490196078431373,-65.01,-55.2,-127.29
61.25,231.01960784313727,-62.0,39.509803921568626,-1.34,-27.38,-96.59
61.3,295.01960784313724,150.0,-52.490196078431374,-40.19,6.84,-53.75
61.35,-315.4901960784314,150.0,-6.490196078431373,-75.12,26.3,-13.99
61.4,-283.4901960784314,35.0,116.50980392156863,-34.21,29.14,11.65
61.45,-188.49019607843138,166.0,70.50980392156863,-14.29,25.08,21.14
61.5,-156.49019607843138,183.0,116.50980392156863,-21.08,18.57,38.15
61.55,-156.49019607843138,101.0,147.50980392156862,1.66,8.52,52.04
61.6,-124.49019607843137,117.0,132.50980392156862,14.64,-8.86,53.16
61.65,-93.49019607843137,117.0,147.50980392156862,31.93,-40.57,32.09
61.7,-77.49019607843137,133.0,147.50980392156862,85.45,-78.58,-7.27
61.75,279.01960784313724,232.0,86.50980392156863,134.03,-49.6,16.8
61.8,136.01960784313727,232.0,39.509803921568626,151.84,-15.06,65.45
61.85,-315.4901960784314,133.0,178.50980392156862,156.15,26.65,78.82
61.9,120.01960784313725,215.0,55.509803921568626,61.93,74.29,80.67
61.95,41.01960784313726,52.0,255.50980392156862,-23.29,91.61,91.31
62.0,152.01960784313727,35.0,286.5098039215686,-3.13,88.15,107.24
62.05,247.01960784313727,166.0,255.50980392156862,12.09,74.15,104.54
62.1,311.01960784313724,150.0,316.5098039215686,10.41,50.56,84.42
62.15,-220.49019607843138,117.0,-264.0,12.82,21.47,50.26
62.2,-124.49019607843137,133.0,-279.0,5.4,-6.94,10.78
62.25,-93.49019607843137,101.0,-264.0,1.1,-35.74,-30.9
62.3,-124.49019607843137,101.0,316.5098039215686,4.53,-50.86,-62.68
62.35,-156.49019607843138,68.0,239.50980392156862,0.4,-73.4,-114.93
62.4,-315.4901960784314,68.0,147.50980392156862,-44.29,-68.82,-139.61
62.45,-149.98039215686273,101.0,24.50980392156863,-78.83,-46.45,-78.74
62.5,-252.49019607843138,-62.0,147.50980392156862,18.46,-7.57,-39.79
62.55,-315.4901960784314,199.0,-129.49019607843138,-62.38,5.76,-45.46
62.6,295.01960784313724,19.0,101.50980392156863,-99.03,-4.52,-60.65
62.65,-204.49019607843138,52.0,193.50980392156862,-19.3,-23.56,-69.22
62.7,-108.49019607843137,281.0,132.50980392156862,39.28,-38.75,-63.8
62.75,-156.49019607843138,297.0,86.50980392156863,25.56,-29.16,-33.24
62.8,-188.49019607843138,183.0,116.50980392156863,-4.77,-2.88,3.29
62.85,-283.4901960784314,117.0,55.509803921568626,-7.12,15.07,36.12
62.9,-236.49019607843138,133.0,70.50980392156863,6.84,23.12,54.11
62.95,-283.4901960784314,133.0,39.509803921568626,19.26,19.2,65.31
63.0,-252.49019607843138,117.0,70.50980392156863,56.08,-11.0,42.52
63.05,-220.49019607843138,166.0,39.509803921568626,108.34,-16.7,10.78
63.1,57.01960784313726,264.0,-37.490196078431374,119.85,15.45,43.22
63.15,311.01960784313724,199.0,132.50980392156862,118.52,34.7,65.34
63.2,-236.49019607843138,133.0,224.50980392156862,114.57,45.27,53.62
63.25,88.01960784313725,232.0,178.50980392156862,49.61,62.39,58.45
63.3,136.01960784313727,150.0,-310.0,27.31,66.31,78.68
63.35,247.01960784313727,183.0,-279.0,36.87,58.75,94.95
63.4,-315.4901960784314,232.0,-249.0,38.34,44.15,94.11
63.45,279.01960784313724,199.0,-233.0,32.04,14.54,75.53
63.5,-267.4901960784314,199.0,-203.0,24.48,-9.77,58.94
63.55,-220.49019607843138,199.0,-203.0,13.35,-32.21,46.86
63.6,-172.49019607843138,166.0,-187.0,9.78,-54.15,33.67
63.65,-188.49019607843138,166.0,-233.0,11.04,-73.89,19.6
63.7,-220.49019607843138,150.0,-310.0,20.14,-91.25,-12.14
63.75,-299.4901960784314,117.0,209.50980392156862,20.1,-101.44,-49.41
63.8,88.01960784313725,68.0,39.509803921568626,1.13,-75.5,-37.51
63.85,104.01960784313725,-45.0,-160.49019607843138,24.62,-22.83,-11.23
63.9,-140.49019607843138,-94.0,-221.49019607843138,-4.21,14.37,-29.64
63.95,-267.4901960784314,-62.0,-98.49019607843137,-69.14,24.83,-47.56
64.0,184.01960784313727,-45.0,24.50980392156863,-7.64,18.85,-30.44
64.05,-299.4901960784314,117.0,86.50980392156863,57.06,11.78,-20.08
64.1,-172.49019607843138,232.0,101.50980392156863,32.84,10.45,-20.64
64.15,-220.49019607843138,150.0,193.50980392156862,8.45,10.52,-18.37
64.2,-220.49019607843138,101.0,209.50980392156862,2.81,18.01,-3.46
64.25,-267.4901960784314,150.0,132.50980392156862,-7.89,26.62,14.63
64.3,-220.49019607843138,84.0,147.50980392156862,-3.37,29.56,26.84
64.35,-204.49019607843138,84.0,116.50980392156863,9.57,22.21,31.71
64.4,-140.49019607843138,101.0,86.50980392156863,31.72,10.52,29.33
64.45,-140.49019607843138,117.0,39.509803921568626,56.26,-20.13,7.28
64.5,-108.49019607843137,133.0,132.50980392156862,100.32,-58.28,-25.75
64.55,-252.49019607843138,166.0,116.50980392156863,109.21,-24.58,4.48
64.6,152.01960784313727,313.0,-144.49019607843138,116.04,13.07,55.93
64.65,-93.49019607843137,150.0,132.50980392156862,133.57,27.21,74.3
64.7,-299.4901960784314,297.0,101.50980392156863,96.86,42.54,76.16
64.75,136.01960784313727,232.0,209.50980392156862,50.13,51.19,97.96
64.8,152.01960784313727,183.0,270.5098039215686,43.1,49.72,127.64
64.85,216.01960784313727,248.0,-310.0,55.63,37.12,144.48
64.9,216.01960784313727,264.0,-264.0,70.92,22.94,145.81
64.95,263.01960784313724,264.0,-249.0,49.43,-0.43,129.71
65.0,-195.0,183.0,-203.0,28.64,-19.26,111.02
65.05,42.0,150.0,-218.0,24.93,-42.18,86.31
65.1,-282.5098039215686,133.0,-279.0,39.25,-61.54,59.29
65.15,-107.50980392156863,101.0,270.5098039215686,60.0,-76.2,32.41
65.2,-11.509803921568627,52.0,132.50980392156862,71.24,-100.98,5.74
65.25,19.49019607843137,-45.0,9.509803921568627,112.26,-95.38,3.99
65.3,4.490196078431373,-78.0,-113.49019607843137,111.24,-44.32,-9.48
65.35,83.49019607843137,-111.0,-36.490196078431374,-48.66,21.51,-47.0
65.4,35.490196078431374,-274.0,-21.49019607843137,-182.19,110.62,-18.89
65.45,-11.509803921568627,19.0,-237.49019607843138,-57.76,201.55,76.72
65.5,4.490196078431373,-2.5098039215686274,-193.98039215686273,-0.47,269.76,140.1
65.55,-91.50980392156863,177.49019607843138,247.52941176470588,4.14,307.25,199.18
65.6,-139.50980392156862,160.49019607843138,-224.98039215686273,16.71,308.54,260.82
65.65,-154.50980392156862,-253.01960784313727,6.019607843137255,33.44,265.88,317.1
65.7,-139.50980392156862,-204.01960784313727,-313.4901960784314,42.82,178.41,-316.18
65.75,-266.5098039215686,242.49019607843138,101.50980392156863,20.24,100.12,318.85
65.8,74.0,-198.50980392156862,-203.0,30.25,37.43,279.3
65.85,-68.0,264.0,-95.0,-15.48,-6.8,223.19
65.9,-290.0,-94.0,12.0,-92.76,-33.96,164.74
65.95,49.509803921568626,172.50980392156862,-49.0,-85.73,-36.02,128.73
66.0,247.01960784313727,25.50980392156863,316.5098039215686,-100.46,-12.92,79.48
66.05,301.52941176470586,-105.49019607843137,101.50980392156863,-26.19,38.38,62.02
66.1,15.529411764705882,-290.0,267.01960784313724,-38.55,54.76,65.1
66.15,-229.98039215686273,-307.0,-52.490196078431374,-35.85,60.74,56.98
66.2,-86.98039215686275,319.5098039215686,-67.49019607843137,-51.53,58.57,54.07
66.25,216.01960784313727,303.5098039215686,86.50980392156863,-47.79,59.41,54.39
66.3,-299.4901960784314,319.5098039215686,-6.490196078431373,-41.91,57.17,56.7
66.35,-204.49019607843138,-290.0,-6.490196078431373,-25.07,51.92,55.3
66.4,-267.4901960784314,-258.0,-36.490196078431374,-44.18,35.19,50.01
66.45,279.01960784313724,303.5098039215686,55.509803921568626,-28.33,24.76,46.06
66.5,-315.4901960784314,-274.0,-36.490196078431374,-26.09,19.65,12.98
66.55,-188.49019607843138,221.50980392156862,39.509803921568626,22.27,5.93,-48.08
66.6,-156.49019607843138,139.50980392156862,86.50980392156863,53.14,-21.95,-118.96
66.65,-252.49019607843138,90.50980392156863,147.50980392156862,34.77,-82.61,-186.09
66.7,216.01960784313727,205.50980392156862,193.50980392156862,41.21,-143.65,-225.29
66.75,231.01960784313727,-290.0,316.5098039215686,7.99,-204.58,-264.56
66.8,136.01960784313727,-225.0,-249.0,-27.03,-254.56,-269.07
66.85,-6.980392156862745,-45.0,286.5098039215686,103.47,-296.81,-263.96
66.9,57.01960784313726,313.0,-283.4901960784314,33.86,300.0,-178.0
66.95,216.01960784313727,313.0,-129.49019607843138,-143.55,284.74,-149.23
67.0,-299.4901960784314,232.0,-67.49019607843137,-156.43,315.43,-157.63
67.05,-108.49019607843137,-29.0,-283.4901960784314,25.91,-248.3,-135.76
67.1,113.50980392156863,-111.0,21.019607843137255,-13.91,-197.44,-54.28
67.15,240.50980392156862,-307.0,-283.4901960784314,-18.35,-94.02,3.32
67.2,288.5098039215686,254.50980392156862,5.019607843137255,-9.04,-21.08,21.52
67.25,288.5098039215686,188.50980392156862,98.01960784313725,-19.58,39.85,18.48
67.3,288.5098039215686,205.50980392156862,113.01960784313725,-46.67,73.1,20.19
67.35,240.50980392156862,188.50980392156862,-267.4901960784314,-14.5,87.73,30.1
67.4,224.50980392156862,221.50980392156862,-129.49019607843138,7.19,87.31,46.37
67.45,177.50980392156862,237.50980392156862,-6.490196078431373,21.85,75.83,60.2
67.5,81.50980392156863,-225.0,116.50980392156863,33.82,51.12,68.04
67.55,-108.49019607843137,-94.0,270.5098039215686,69.1,18.71,82.98
67.6,247.01960784313727,19.0,255.50980392156862,160.66,-16.42,96.32
67.65,184.01960784313727,166.0,132.50980392156862,267.9,23.36,160.72
67.7,72.01960784313725,-263.5098039215686,-52.490196078431374,251.52,73.24,216.12
67.75,-260.98039215686276,-263.5098039215686,70.50980392156863,285.44,122.69,232.61
67.8,-165.98039215686273,183.0,-144.49019607843138,237.31,156.54,222.81
67.85,136.01960784313727,84.0,-52.490196078431374,159.82,157.52,194.46
67.9,216.01960784313727,166.0,9.509803921568627,153.1,128.4,173.35
67.95,-267.4901960784314,248.0,-36.490196078431374,135.5,107.99,162.01
68.0,-124.49019607843137,232.0,39.509803921568626,108.51,82.86,147.0
68.05,-61.490196078431374,297.0,163.50980392156862,92.41,56.23,122.43
68.1,-124.49019607843137,264.0,116.50980392156863,62.24,28.19,95.23
68.15,-220.49019607843138,150.0,70.50980392156863,29.97,5.02,58.73
68.2,-252.49019607843138,84.0,-37.490196078431374,8.34,-8.76,34.79
68.25,-283.4901960784314,117.0,-98.49019607843137,-17.51,-22.44,15.26
68.3,-315.4901960784314,117.0,-144.49019607843138,-56.68,-32.38,-5.49
68.35,25.019607843137255,133.0,-144.49019607843138,-102.77,-40.12,-43.01
68.4,-299.4901960784314,133.0,-160.49019607843138,-141.9,-47.01,-82.52
68.45,-236.49019607843138,183.0,-83.49019607843137,-159.93,-53.31,-129.11
68.5,263.01960784313724,232.0,9.509803921568627,-216.77,-73.58,-204.74
68.55,120.01960784313725,215.0,147.50980392156862,-311.34,-82.12,-262.35
68.6,57.01960784313726,183.0,316.5098039215686,-296.36,-79.53,-290.25
68.65,152.01960784313727,166.0,286.5098039215686,-129.09,-99.58,-280.24
68.7,311.01960784313724,133.0,132.50980392156862,11.7,-113.44,-239.74
68.75,-315.4901960784314,248.0,-21.49019607843137,-20.24,-97.52,-173.17
68.8,-315.4901960784314,215.0,101.50980392156863,-80.02,-71.2,-103.84
68.85,-220.49019607843138,232.0,147.50980392156862,-108.48,-39.59,-67.96
68.9,-172.49019607843138,166.0,70.50980392156863,-106.48,-32.24,-64.01
68.95,-124.49019607843137,101.0,86.50980392156863,-92.87,-32.59,-52.11
69.0,-188.49019607843138,52.0,86.50980392156863,-43.2,-31.58,-19.38
69.05,-315.4901960784314,35.0,9.509803921568627,-12.58,-15.9,24.36
69.1,216.01960784313727,-94.0,-52.490196078431374,-27.21,9.05,75.14
69.15,184.01960784313727,172.50980392156862,9.509803921568627,-23.11,21.33,109.13
69.2,-181.98039215686273,-241.0,-21.49019607843137,19.79,23.22,123.58
69.25,152.01960784313727,101.0,-98.49019607843137,60.95,-4.87,96.39
69.3,-236.49019607843138,215.0,-52.490196078431374,82.65,-8.34,52.18
69.35,-315.4901960784314,150.0,-98.49019607843137,128.01,6.21,73.64
69.4,231.01960784313727,150.0,70.50980392156863,166.68,10.87,73.36
69.45,295.01960784313724,232.0,163.50980392156862,191.11,22.45,52.04
69.5,-61.490196078431374,313.0,178.50980392156862,162.73,39.25,29.08
69.55,34.509803921568626,313.0,-310.0,93.43,57.0,24.01
69.6,18.50980392156863,166.0,-279.0,-5.65,69.07,66.39
69.65,-13.490196078431373,101.0,-187.0,-39.77,58.99,113.29
69.7,-45.490196078431374,133.0,-172.0,7.54,30.92,139.72
69.75,-172.49019607843138,117.0,-233.0,35.36,2.47,135.41
69.8,311.01960784313724,3.0,-203.0,34.35,-28.11,126.17
69.85,263.01960784313724,-62.0,-218.0,32.35,-63.5,88.72
69.9,216.01960784313727,-13.0,-249.0,18.6,-81.14,42.17
69.95,-54.98039215686274,101.0,-310.0,14.01,-100.56,-8.99
70.0,-188.49019607843138,133.0,24.50980392156863,44.11,-102.73,-44.34
70.05,-172.49019607843138,264.0,86.50980392156863,40.72,-64.55,-64.08
70.1,311.01960784313724,297.0,163.50980392156862,-126.71,-9.14,-108.7
70.15,184.01960784313727,232.0,286.5098039215686,-179.46,34.32,-156.27
70.2,184.01960784313727,199.0,-218.0,-118.91,65.96,-135.09
70.25,231.01960784313727,232.0,-187.0,-50.87,88.6,-100.97
70.3,-283.4901960784314,-296.5098039215686,-218.0,-81.18,105.26,-68.42
70.35,-220.49019607843138,-231.50980392156862,-218.0,-151.49,94.41,-37.27
70.4,-236.49019607843138,297.0,-187.0,-144.81,59.2,2.66
70.45,-299.4901960784314,264.0,-187.0,-40.93,20.49,33.28
70.5,263.01960784313724,264.0,-264.0,20.28,-13.48,29.85
70.55,231.01960784313727,281.0,-264.0,-6.8,-48.62,-1.64
70.6,168.01960784313727,264.0,-279.0,-39.18,-89.54,-44.44
70.65,152.01960784313727,248.0,-279.0,5.12,-115.61,-64.04
70.7,72.01960784313725,166.0,-264.0,67.98,-126.29,-65.51
70.75,152.01960784313727,117.0,-295.0,88.04,-104.48,-51.48
70.8,216.01960784313727,117.0,270.5098039215686,42.57,-45.75,-20.01
70.85,295.01960784313724,52.0,286.5098039215686,45.79,-3.72,-18.05
70.9,-299.4901960784314,-13.0,224.50980392156862,23.92,36.77,13.82
70.95,247.01960784313727,-13.0,147.50980392156862,44.46,54.62,57.19
71.0,-188.49019607843138,-13.0,70.50980392156863,98.4,58.01,67.55
71.05,-77.49019607843137,3.0,-6.490196078431373,124.61,62.49,50.36
71.1,-220.49019607843138,-13.0,70.50980392156863,93.57,74.01,43.47
71.15,263.01960784313724,3.0,86.50980392156863,56.71,73.31,57.85
71.2,247.01960784313727,84.0,55.509803921568626,37.92,49.05,76.09
71.25,311.01960784313724,84.0,70.50980392156863,86.32,12.13,80.25
71.3,-315.4901960784314,68.0,116.50980392156863,174.91,-21.95,63.49
71.35,-283.4901960784314,84.0,147.50980392156862,166.58,-33.08,51.94
71.4,-236.49019607843138,133.0,132.50980392156862,129.72,-33.89,53.93
71.45,-188.49019607843138,166.0,116.50980392156863,107.18,-23.39,70.7
71.5,-124.49019607843137,133.0,70.50980392156863,103.3,-12.71,102.9
71.55,-172.49019607843138,133.0,86.50980392156863,102.18,-2.53,143.18
71.6,-188.49019607843138,68.0,86.50980392156863,103.58,4.43,163.62
71.65,-188.49019607843138,84.0,39.509803921568626,71.52,11.29,162.85
71.7,-124.49019607843137,68.0,24.50980392156863,44.92,6.35,148.29
71.75,-156.49019607843138,101.0,-6.490196078431373,39.25,6.46,124.07
71.8,136.01960784313727,166.0,-98.49019607843137,20.66,10.55,84.17
71.85,231.01960784313727,117.0,24.50980392156863,-13.94,-1.58,35.59
71.9,-204.49019607843138,101.0,147.50980392156862,-30.15,-16.14,-3.6
71.95,311.01960784313724,248.0,132.50980392156862,-8.94,-25.84,-22.74
72.0,-188.49019607843138,-13.0,70.50980392156863,31.37,-26.61,-43.95
72.05,-77.49019607843137,3.0,-6.490196078431373,11.6,-31.58,-90.89
72.1,-220.49019607843138,-13.0,70.50980392156863,-21.43,-39.14,-119.69
72.15,263.01960784313724,3.0,86.50980392156863,-9.08,-36.55,-118.54
72.2,247.01960784313727,84.0,55.509803921568626,2.6,-24.37,-97.71
72.25,311.01960784313724,84.0,70.50980392156863,-13.66,-13.2,-75.49
72.3,-315.4901960784314,68.0,116.50980392156863,-33.72,-5.47,-50.88
72.35,-283.4901960784314,84.0,147.50980392156862,-23.92,-6.38,-37.62
72.4,-236.49019607843138,133.0,132.50980392156862,-8.87,-8.37,-26.7
72.45,-188.49019607843138,166.0,116.50980392156863,-2.11,-7.18,-14.41
72.5,-124.49019607843137,133.0,70.50980392156863,-4.49,-0.53,0.52
72.55,-172.49019607843138,133.0,86.50980392156863,-13.73,8.14,20.09
72.6,-188.49019607843138,68.0,86.50980392156863,-6.35,10.13,31.39
72.65,-188.49019607843138,84.0,39.509803921568626,15.9,3.2,34.16
72.7,-124.49019607843137,68.0,24.50980392156863,43.34,-15.02,23.03
72.75,-156.49019607843138,101.0,-6.490196078431373,84.19,-18.28,0.45
72.8,136.01960784313727,166.0,-98.49019607843137,73.41,19.3,48.3
72.85,231.01960784313727,117.0,24.50980392156863,88.49,34.18,81.23
72.9,-204.49019607843138,101.0,147.50980392156862,134.34,38.83,80.81
72.95,311.01960784313724,248.0,132.50980392156862,119.05,51.57,72.03
73.0,-108.49019607843137,199.0,255.50980392156862,62.91,64.28,77.59
73.05,-220.49019607843138,166.0,-310.0,-19.68,71.07,109.62
73.1,-267.4901960784314,101.0,-218.0,-37.46,62.04,131.84
73.15,-299.4901960784314,117.0,-264.0,-21.78,49.65,130.65
73.2,-117.98039215686275,150.0,301.5098039215686,-14.01,44.85,100.8
73.25,200.01960784313727,68.0,209.50980392156862,-48.31,25.25,41.4
73.3,-204.49019607843138,-29.0,193.50980392156862,-36.8,-10.37,-14.24
73.35,-236.49019607843138,-45.0,116.50980392156863,9.6,-40.33,-66.28
73.4,295.01960784313724,19.0,9.509803921568627,30.11,-56.5,-117.94
73.45,136.01960784313727,-13.0,-36.490196078431374,6.0,-55.69,-157.0
73.5,104.01960784313725,-45.0,-6.490196078431373,-47.93,-58.98,-194.42
73.55,200.01960784313727,-45.0,86.50980392156863,-106.59,-37.88,-191.48
73.6,231.01960784313727,68.0,55.509803921568626,-101.2,-17.82,-136.67
73.65,263.01960784313724,117.0,178.50980392156862,-16.78,-2.21,-88.68
73.7,279.01960784313724,313.0,132.50980392156862,-33.89,7.65,-61.1
73.75,311.01960784313724,215.0,209.50980392156862,-140.15,2.29,-30.97
73.8,279.01960784313724,52.0,-295.0,-92.76,-14.53,-19.91
73.85,9.019607843137255,215.0,301.5098039215686,-21.19,-38.72,-15.99
73.9,-93.49019607843137,313.0,193.50980392156862,0.78,-53.17,-7.87
73.95,-77.49019607843137,232.0,132.50980392156862,2.15,-54.29,12.7
74.0,-315.4901960784314,133.0,70.50980392156863,18.88,-38.82,41.86
74.05,247.01960784313727,84.0,-52.490196078431374,25.6,-23.6,59.32
74.1,-236.49019607843138,52.0,-52.490196078431374,30.46,-31.37,58.03
74.15,-140.49019607843138,3.0,-52.490196078431374,76.21,-21.67,27.26
74.2,-156.49019607843138,133.0,-206.49019607843138,78.27,-4.31,45.32
74.25,-252.49019607843138,35.0,39.509803921568626,141.87,4.67,66.57
74.3,-267.4901960784314,84.0,70.50980392156863,190.87,12.93,41.26
74.35,-315.4901960784314,183.0,86.50980392156863,176.52,26.51,-11.93
74.4,-267.4901960784314,133.0,163.50980392156862,106.13,55.32,-60.86
74.45,-220.49019607843138,117.0,224.50980392156862,-10.34,83.25,-54.38
74.5,-252.49019607843138,84.0,-264.0,-58.32,87.52,9.45
74.55,-54.98039215686274,166.0,-233.0,19.19,80.31,58.24
74.6,295.01960784313724,-280.5098039215686,-264.0,65.11,65.33,87.88
74.65,-236.49019607843138,-247.50980392156862,-218.0,50.06,45.1,104.33
74.7,-252.49019607843138,232.0,-126.0,31.48,23.33,105.31
74.75,263.01960784313724,232.0,-187.0,-4.7,-8.79,87.25
74.8,-283.4901960784314,166.0,-187.0,-41.1,-41.31,88.3
74.85,295.01960784313724,133.0,-218.0,24.34,-72.7,114.24
74.9,-267.4901960784314,133.0,270.5098039215686,131.75,-78.79,129.22
74.95,-220.49019607843138,183.0,-21.49019607843137,134.62,-93.35,107.69
75.0,2.5098039215686274,24.980392156862745,-21.49019607843137,86.29,-97.83,60.37
75.05,145.50980392156862,128.49019607843138,-175.49019607843138,133.64,-71.97,38.29
75.1,240.50980392156862,-116.50980392156863,-221.49019607843138,117.37,-54.01,9.24
75.15,81.50980392156863,150.0,-113.49019607843137,78.41,-42.5,-24.39
75.2,-61.490196078431374,35.0,-6.490196078431373,74.0,-32.66,-52.67
75.25,-290.0,139.50980392156862,39.509803921568626,79.22,-23.91,-50.71
75.3,186.0,-62.0,101.50980392156863,73.83,-11.45,-29.81
75.35,122.0,156.50980392156862,178.50980392156862,60.95,-1.16,2.97
75.4,42.0,-143.0,239.50980392156862,67.07,6.81,42.49
75.45,-36.0,319.5098039215686,224.50980392156862,50.62,12.86,92.61
75.5,11.0,-62.0,255.50980392156862,78.17,20.63,146.26
75.55,-52.0,-127.0,55.509803921568626,90.24,28.58,215.77
75.6,-4.0,-78.0,163.50980392156862,103.16,21.68,258.37
75.65,42.0,-111.0,116.50980392156863,156.39,20.25,292.35
75.7,42.0,-127.0,147.50980392156862,107.5,28.09,-303.05
75.75,42.0,52.0,132.50980392156862,104.0,29.0,-185.28
75.8,-36.0,-192.0,39.509803921568626,60.11,8.38,-95.33
75.85,-4.0,-62.0,-126.0,60.28,-38.02,-81.26
75.9,-84.0,303.5098039215686,-126.0,51.32,-72.04,-114.23
75.95,11.0,-176.0,-33.0,4.04,-102.7,-172.12
76.0,-52.0,-290.0,-33.0,-54.65,-102.03,-257.52
76.05,240.50980392156862,-241.0,-79.0,-60.98,-100.0,-324.4
76.1,256.5098039215686,-94.0,301.5098039215686,-62.59,-73.82,258.16
76.15,288.5098039215686,-78.0,86.50980392156863,41.8,-8.44,131.56
76.2,-275.0,183.0,-190.49019607843138,-58.92,-36.06,55.75
76.25,-211.0,-263.5098039215686,-313.4901960784314,29.66,-40.82,17.71
76.3,-116.0,-263.5098039215686,86.50980392156863,-7.19,-38.26,1.82
76.35,-306.0,30.49019607843137,21.019607843137255,20.28,-26.08,-9.76
76.4,161.50980392156862,62.490196078431374,313.01960784313724,-3.44,-23.07,-18.02
76.45,177.50980392156862,95.49019607843137,-298.4901960784314,24.58,0.79,-20.15
76.5,161.50980392156862,242.49019607843138,190.01960784313727,-1.73,3.69,-23.27
76.55,224.50980392156862,307.4901960784314,-267.4901960784314,8.38,11.74,-30.09
76.6,129.50980392156862,226.49019607843138,-313.4901960784314,-16.36,3.31,-28.2
76.65,34.509803921568626,-2.5098039215686274,-283.4901960784314,-12.33,-1.37,-23.13
76.7,34.509803921568626,-116.50980392156863,267.01960784313724,27.66,1.77,-9.23
76.75,2.5098039215686274,-214.50980392156862,221.01960784313727,-12.58,-6.38,16.73
76.8,-108.49019607843137,-280.5098039215686,-221.49019607843138,-15.76,8.28,13.86
76.85,-236.49019607843138,264.0,-221.49019607843138,-22.17,56.58,-7.34
76.9,295.01960784313724,84.0,-9.980392156862745,-17.86,55.77,-31.39
76.95,279.01960784313724,84.0,-267.4901960784314,-31.76,43.21,-59.46
77.0,231.01960784313727,150.0,-160.49019607843138,-1.66,13.28,-106.29
77.05,216.01960784313727,52.0,-267.4901960784314,-14.22,-24.51,-167.15
77.1,41.01960784313726,35.0,-52.490196078431374,-26.3,-35.29,-217.27
77.15,-204.49019607843138,52.0,-129.49019607843138,-16.18,-32.59,-262.39
77.2,65.50980392156863,101.0,-83.49019607843137,-19.33,-68.92,-282.13
77.25,-93.49019607843137,19.0,-298.4901960784314,-75.93,-98.67,-288.01
77.3,-236.49019607843138,35.0,-190.49019607843138,-110.89,-123.56,-307.29
77.35,-236.49019607843138,150.0,298.01960784313724,-162.73,-116.24,-298.4
77.4,-172.49019607843138,166.0,-267.4901960784314,-150.93,-102.14,-261.76
77.45,-220.49019607843138,68.0,298.01960784313724,-84.19,-99.13,-189.17
77.5,-236.49019607843138,52.0,252.01960784313727,-25.11,-105.92,-99.67
77.55,-204.49019607843138,117.0,129.01960784313727,3.06,-91.29,-19.35
77.6,-156.49019607843138,101.0,159.01960784313727,9.15,-57.2,37.52
77.65,-93.49019607843137,52.0,252.01960784313727,24.65,-25.73,59.57
77.7,-140.49019607843138,52.0,298.01960784313724,40.68,-1.48,53.97
77.75,-220.49019607843138,68.0,-175.49019607843138,41.91,11.32,31.78
77.8,231.01960784313727,150.0,-83.49019607843137,-3.55,35.02,-5.21
77.85,200.01960784313727,232.0,9.509803921568627,-85.45,56.82,-33.8
77.9,-124.49019607843137,232.0,101.50980392156863,-99.9,54.51,-27.75
77.95,311.01960784313724,297.0,147.50980392156862,-28.85,56.37,-10.7
78.0,72.01960784313725,248.0,209.50980392156862,-17.76,49.79,-20.4
78.05,88.01960784313725,133.0,316.5098039215686,-42.75,17.2,-63.87
78.1,168.01960784313727,117.0,-295.0,-35.64,-6.87,-65.9
78.15,279.01960784313724,150.0,-295.0,14.92,-4.38,-69.71
78.2,-252.49019607843138,166.0,286.5098039215686,-43.76,-8.2,-103.87
78.25,-172.49019607843138,117.0,316.5098039215686,-84.57,-28.04,-121.3
78.3,-156.49019607843138,52.0,270.5098039215686,-45.41,-39.17,-111.82
78.35,-124.49019607843137,3.0,193.50980392156862,-16.11,-44.6,-100.06
78.4,-156.49019607843138,19.0,86.50980392156863,-48.77,-41.94,-94.04
78.45,-188.49019607843138,-29.0,-6.490196078431373,-70.78,-32.59,-73.77
78.5,-315.4901960784314,-94.0,-6.490196078431373,-56.05,-24.82,-50.85
78.55,25.019607843137255,-62.0,9.509803921568627,-45.76,-17.51,-34.75
78.6,41.01960784313726,19.0,-6.490196078431373,-36.62,-14.64,-26.84
78.65,-204.49019607843138,101.0,101.50980392156863,-28.19,-12.22,-20.29
78.7,-315.4901960784314,183.0,163.50980392156862,-23.92,-16.21,-16.76
78.75,184.01960784313727,117.0,270.5098039215686,4.6,-20.73,-20.43
78.8,-267.4901960784314,183.0,-295.0,41.38,8.45,19.77
78.85,-124.49019607843137,297.0,301.5098039215686,81.84,20.84,75.95
78.9,-93.49019607843137,313.0,255.50980392156862,133.33,35.09,96.35
78.95,-124.49019607843137,166.0,224.50980392156862,124.12,59.1,107.17
79.0,-124.49019607843137,117.0,147.50980392156862,57.52,80.03,126.35
79.05,-124.49019607843137,150.0,-6.490196078431373,-0.19,79.89,143.18
79.1,-188.49019607843138,52.0,-113.49019607843137,-4.28,61.86,150.01
79.15,-236.49019607843138,-78.0,-129.49019607843138,31.51,32.85,129.32
79.2,-299.4901960784314,-62.0,-129.49019607843138,34.42,12.37,95.48
79.25,57.01960784313726,117.0,-175.49019607843138,4.7,-8.09,52.39
79.3,311.01960784313724,166.0,9.509803921568627,-14.68,-27.34,12.42
79.35,-140.49019607843138,133.0,101.50980392156863,-2.22,-37.35,-25.96
79.4,-299.4901960784314,199.0,101.50980392156863,-3.13,-31.33,-71.32
79.45,216.01960784313727,183.0,224.50980392156862,-45.02,-26.12,-113.04
79.5,184.01960784313727,183.0,286.5098039215686,-75.54,-34.9,-162.64
79.55,247.01960784313727,199.0,-295.0,-89.61,-27.66,-174.64
79.6,-283.4901960784314,199.0,-264.0,-54.37,-5.36,-145.8
79.65,-252.49019607843138,248.0,-264.0,-59.58,14.37,-125.19
79.7,-267.4901960784314,199.0,-249.0,-127.66,19.13,-98.9
79.75,-236.49019607843138,150.0,-218.0,-134.69,13.67,-65.37
79.8,-220.49019607843138,166.0,-249.0,-66.41,-1.62,-43.71
79.85,-252.49019607843138,166.0,-295.0,-24.97,-20.97,-28.62
79.9,295.01960784313724,166.0,193.50980392156862,-47.79,-34.69,-11.68
79.95,311.01960784313724,35.0,163.50980392156862,-39.88,-41.24,3.36
80.0,-165.98039215686273,-78.0,101.50980392156863,-32.63,-44.74,15.43
80.05,231.01960784313727,-78.0,-98.49019607843137,64.94,-36.23,21.07
80.1,2.5098039215686274,19.0,-129.49019607843138,37.36,-15.58,16.41
80.15,34.509803921568626,3.0,24.50980392156863,-29.59,-16.74,-6.15
80.2,-188.49019607843138,-62.0,116.50980392156863,-5.47,-3.12,-22.6
80.25,-299.4901960784314,84.0,101.50980392156863,68.86,20.98,24.43
80.3,-220.49019607843138,232.0,132.50980392156862,72.5,33.9,61.28
80.35,-283.4901960784314,183.0,163.50980392156862,9.11,42.19,61.11
80.4,-299.4901960784314,68.0,224.50980392156862,5.68,49.33,48.05
80.45,-236.49019607843138,133.0,163.50980392156862,37.95,42.82,45.15
80.5,-188.49019607843138,199.0,116.50980392156863,60.53,37.19,59.78
80.55,-188.49019607843138,150.0,132.50980392156862,59.23,27.95,74.37
80.6,-188.49019607843138,68.0,162.50980392156862,72.43,11.36,80.29
80.65,-267.4901960784314,84.0,70.50980392156863,76.77,-3.3,74.58
80.7,-252.49019607843138,68.0,70.50980392156863,87.51,-18.31,66.99
80.75,-188.49019607843138,101.0,39.509803921568626,130.56,-35.64,60.62
80.8,-117.98039215686275,199.0,-129.49019607843138,130.11,-55.55,49.63
80.85,-267.4901960784314,183.0,116.50980392156863,135.18,-49.57,31.92
80.9,-204.49019607843138,166.0,163.50980392156862,113.62,-29.76,17.22
80.95,295.01960784313724,199.0,209.50980392156862,95.98,-17.19,-0.45
81.0,200.01960784313727,199.0,286.5098039215686,71.13,-8.16,37.76
81.05,200.01960784313727,248.0,-264.0,63.36,4.85,47.67
81.1,279.01960784313724,281.0,-203.0,108.02,-7.18,-36.43
81.15,295.01960784313724,-296.5098039215686,-187.0,144.98,-20.52,-91.1
81.2,311.01960784313724,-263.5098039215686,-187.0,134.31,-19.85,-86.16
81.25,231.01960784313727,-312.5098039215686,-172.0,113.76,-22.9,-53.37
81.3,200.01960784313727,297.0,-172.0,114.81,-17.23,-29.67
81.35,168.01960784313727,313.0,-233.0,110.68,-4.28,-6.15
81.4,136.01960784313727,297.0,-249.0,91.15,-0.46,21.31
81.45,88.01960784313725,248.0,-249.0,84.19,-1.16,41.68
81.5,104.01960784313725,183.0,-279.0,73.23,-2.25,51.24
81.55,152.01960784313727,133.0,-310.0,48.8,-7.08,53.16
81.6,184.01960784313727,84.0,301.5098039215686,0.05,-10.75,48.12
81.65,216.01960784313727,19.0,286.5098039215686,-26.93,-13.38,41.68
81.7,231.01960784313727,3.0,255.50980392156862,13.63,-36.13,20.86
81.75,-204.49019607843138,35.0,132.50980392156862,62.07,-34.97,-20.96
81.8,-140.49019607843138,19.0,-21.49019607843137,34.73,4.32,16.06
81.85,-156.49019607843138,-94.0,55.509803921568626,-5.02,40.44,49.94
81.9,311.01960784313724,-127.0,9.509803921568627,27.91,55.88,49.87
81.95,-267.4901960784314,-13.0,-21.49019607843137,41.94,69.32,50.54
82.0,-220.49019607843138,35.0,-21.49019607843137,-0.19,70.89,63.8
82.05,-315.4901960784314,-45.0,39.509803921568626,-38.76,50.52,84.59
82.1,279.01960784313724,3.0,55.509803921568626,-23.95,20.0,93.27
82.15,311.01960784313724,117.0,55.509803921568626,-29.62,1.45,87.08
82.2,-283.4901960784314,150.0,86.50980392156863,-56.33,-11.24,81.27
82.25,-236.49019607843138,101.0,147.50980392156862,-71.31,-18.28,83.72
82.3,-220.49019607843138,101.0,132.50980392156862,-60.91,-15.41,102.41
82.35,-188.49019607843138,117.0,86.50980392156863,-27.07,-4.42,136.36
82.4,-124.49019607843137,117.0,70.50980392156863,1.1,2.08,158.83
82.45,-61.490196078431374,150.0,70.50980392156863,37.39,5.37,169.92
82.5,-283.4901960784314,199.0,39.509803921568626,74.84,9.61,168.45
82.55,136.01960784313727,232.0,-67.49019607843137,85.06,18.22,146.86
82.6,-188.49019607843138,117.0,116.50980392156863,103.82,12.23,103.6
82.65,-204.49019607843138,199.0,147.50980392156862,117.26,-11.31,71.61
82.7,200.01960784313727,248.0,178.50980392156862,96.02,-31.75,50.71
82.75,88.01960784313725,199.0,286.5098039215686,53.32,-32.73,25.65
82.8,104.01960784313725,166.0,-310.0,11.77,-41.45,-12.07
82.85,200.01960784313727,117.0,-264.0,15.66,-59.72,-63.97
82.9,279.01960784313724,117.0,-310.0,25.46,-72.95,-94.91
82.95,-299.4901960784314,150.0,301.5098039215686,13.28,-71.02,-119.13
83.0,-236.49019607843138,101.0,-21.49019607843137,-0.19,-55.38,-127.92
83.05,-124.49019607843137,35.0,39.509803921568626,-38.76,-30.98,-108.49
83.1,-108.49019607843137,35.0,55.509803921568626,-23.95,-12.12,-74.26
83.15,-108.49019607843137,35.0,55.509803921568626,-29.62,3.73,-47.28
83.2,-220.49019607843138,19.0,86.50980392156863,-56.33,16.26,-25.05
83.25,-315.4901960784314,-45.0,147.50980392156862,-71.31,24.38,-5.35
83.3,-117.98039215686275,-62.0,132.50980392156862,-60.91,26.16,12.6
83.35,41.01960784313726,19.0,86.50980392156863,-27.07,14.79,17.53
83.4,-124.49019607843137,68.0,70.50980392156863,1.1,-12.22,4.41
83.45,-220.49019607843138,133.0,70.50980392156863,37.39,-42.99,-23.9
83.5,247.01960784313727,-13.0,39.509803921568626,74.84,-27.52,-11.16
83.55,-252.49019607843138,84.0,-67.49019607843137,85.06,9.4,72.13
83.6,-61.490196078431374,281.0,116.50980392156863,103.82,18.53,87.01
83.65,-140.49019607843138,248.0,147.50980392156862,117.26,29.63,79.45
83.7,-140.49019607843138,35.0,178.50980392156862,96.02,39.67,77.59
83.75,-124.49019607843137,68.0,286.5098039215686,53.32,50.21,96.95
83.8,-140.49019607843138,68.0,-310.0,11.77,54.27,130.76
83.85,-220.49019607843138,19.0,-264.0,15.66,47.37,136.6
83.9,-204.49019607843138,-29.0,-310.0,25.46,32.78,119.56
83.95,-172.49019607843138,19.0,301.5098039215686,13.28,16.89,90.33
84.0,-236.49019607843138,101.0,301.5098039215686,-2.08,-3.19,56.03
84.05,-124.49019607843137,35.0,270.5098039215686,4.88,-38.79,-2.02
84.1,-108.49019607843137,35.0,239.50980392156862,22.31,-57.58,-50.78
84.15,-108.49019607843137,35.0,162.50980392156862,28.36,-56.46,-89.1
84.2,-220.49019607843138,19.0,55.509803921568626,-16.08,-52.44,-117.77
84.25,-315.4901960784314,-45.0,70.50980392156863,-67.6,-48.1,-150.53
84.3,-117.98039215686275,-62.0,70.50980392156863,-72.57,-28.29,-110.7
84.35,41.01960784313726,19.0,24.50980392156863,-10.69,-8.76,-74.19
84.4,-124.49019607843137,68.0,39.509803921568626,-7.22,10.87,-78.46
84.45,-220.49019607843138,133.0,86.50980392156863,-115.83,20.7,-74.12
84.5,247.01960784313727,-13.0,239.50980392156862,-149.22,24.48,-39.86
84.55,-252.49019607843138,84.0,270.5098039215686,-25.39,8.63,-3.39
84.6,-61.490196078431374,281.0,178.50980392156862,-14.47,-0.95,4.41
84.65,-140.49019607843138,248.0,193.50980392156862,-59.86,-4.52,12.81
84.7,-140.49019607843138,35.0,178.50980392156862,-42.96,-6.31,24.5
84.75,-124.49019607843137,68.0,86.50980392156863,-10.37,-10.19,29.75
84.8,-140.49019607843138,68.0,24.50980392156863,3.44,-12.12,24.43
84.85,-220.49019607843138,19.0,-21.49019607843137,-3.16,-17.79,16.73
84.9,-204.49019607843138,-29.0,-6.490196078431373,8.83,-38.09,-3.14
84.95,-172.49019607843138,19.0,-36.490196078431374,79.74,-63.04,-49.45
85.0,57.01960784313726,166.0,-144.49019607843138,89.82,-18.14,-18.86
85.05,200.01960784313727,166.0,-67.49019607843137,78.9,15.52,44.13
85.1,-108.49019607843137,3.0,132.50980392156862,97.49,31.27,43.26
85.15,-267.4901960784314,150.0,9.509803921568627,104.42,50.49,27.09
85.2,200.01960784313727,215.0,101.50980392156863,47.54,69.28,30.27
85.25,200.01960784313727,133.0,286.5098039215686,-6.42,74.85,52.6
85.3,295.01960784313724,117.0,-310.0,-7.57,60.11,75.67
85.35,-315.4901960784314,183.0,-295.0,23.78,38.24,78.15
85.4,-236.49019607843138,232.0,-279.0,33.75,16.78,67.37
85.45,-252.49019607843138,215.0,-249.0,9.74,-0.78,55.05
85.5,-252.49019607843138,150.0,-279.0,-20.03,-27.73,43.92
85.55,-188.49019607843138,101.0,-264.0,5.44,-47.19,29.43
85.6,-204.49019607843138,150.0,255.50980392156862,28.57,-55.55,9.52
85.65,-267.4901960784314,117.0,178.50980392156862,19.72,-49.67,-10.0
85.7,-283.4901960784314,35.0,55.509803921568626,-8.83,-38.93,-27.36
85.75,311.01960784313724,-78.0,-21.49019607843137,-16.78,-36.69,-59.35
85.8,88.01960784313725,-78.0,-98.49019607843137,-3.13,-24.47,-59.63
85.85,216.01960784313727,-62.0,-129.49019607843138,25.42,-5.19,-49.55
85.9,-108.49019607843137,19.0,24.50980392156863,9.95,7.61,-61.56
85.95,-156.49019607843138,35.0,86.50980392156863,-70.68,21.51,-74.79
86.0,263.01960784313724,-45.0,163.50980392156862,-124.4,29.7,-38.21
86.05,-299.4901960784314,52.0,270.5098039215686,-49.47,10.52,-8.5
86.1,-124.49019607843137,183.0,270.5098039215686,21.12,-10.58,4.97
86.15,-140.49019607843138,281.0,193.50980392156862,16.22,-26.01,14.21
86.2,-156.49019607843138,133.0,255.50980392156862,6.91,-34.52,23.66
86.25,-172.49019607843138,117.0,255.50980392156862,24.72,-32.35,31.74
86.3,-220.49019607843138,117.0,147.50980392156862,0.5,-22.23,34.16
86.35,-252.49019607843138,35.0,101.50980392156863,-10.34,-21.85,32.65
86.4,-236.49019607843138,19.0,101.50980392156863,12.93,-28.11,22.89
86.45,-299.4901960784314,52.0,24.50980392156863,40.26,-37.77,10.88
86.5,-236.49019607843138,68.0,-6.490196078431373,86.04,-40.96,-37.58
86.55,216.01960784313727,101.0,-67.49019607843137,82.65,-1.41,-22.81
86.6,104.01960784313725,101.0,-98.49019607843137,74.32,27.39,16.52
86.65,-188.49019607843138,35.0,101.50980392156863,99.38,47.27,14.49
86.7,-315.4901960784314,166.0,70.50980392156863,85.97,69.91,1.36
86.75,104.01960784313725,232.0,132.50980392156862,9.22,92.03,18.69
86.8,152.01960784313727,133.0,316.5098039215686,-57.83,108.34,71.15
86.85,216.01960784313727,150.0,-310.0,-97.63,114.92,143.04
86.9,231.01960784313727,313.0,255.50980392156862,-107.08,123.36,215.14
86.95,279.01960784313724,-67.50980392156863,24.50980392156863,-65.53,145.51,287.73
87.0,-283.4901960784314,-187.01960784313727,-283.4901960784314,-58.85,158.71,-269.63
87.05,-156.49019607843138,57.98039215686274,190.01960784313727,-88.53,138.2,-228.61
87.1,49.509803921568626,57.98039215686274,175.01960784313727,-99.87,86.68,-229.97
87.15,288.5098039215686,-57.01960784313726,-160.49019607843138,-31.3,24.76,-266.86
87.2,-131.0,-155.01960784313727,-6.490196078431373,40.3,-7.25,289.62
87.25,-68.0,79.49019607843137,101.50980392156863,1.87,-65.98,159.6
87.3,-36.0,-45.0,-126.0,11.28,-110.92,80.74
87.35,154.0,270.5098039215686,-126.0,-39.39,-140.5,18.16
87.4,-4.0,286.5098039215686,-49.0,-90.0,-103.33,-18.72
87.45,272.5098039215686,-274.0,316.5098039215686,-47.3,-42.67,-33.87
87.5,154.0,3.0,313.01960784313724,-3.93,-33.19,-2.44
87.55,-218.50980392156862,297.0,298.01960784313724,17.13,-9.88,18.3
87.6,-11.509803921568627,281.0,267.01960784313724,17.13,5.51,20.05
87.65,-43.509803921568626,52.0,252.01960784313727,0.33,4.04,13.79
87.7,-123.50980392156863,-45.0,-175.49019607843138,-6.42,2.08,8.43
87.75,-218.50980392156862,-13.0,-113.49019607843137,-26.44,15.56,8.33
87.8,-266.5098039215686,-62.0,-175.49019607843138,-19.37,18.99,12.56
87.85,-170.50980392156862,101.0,-175.49019607843138,-27.84,8.24,22.57
87.9,-75.50980392156863,35.0,-160.49019607843138,-7.19,7.19,46.51
87.95,-11.509803921568627,68.0,-283.4901960784314,24.09,18.92,79.45
88.0,4.490196078431373,117.0,-283.4901960784314,-40.47,34.11,69.82
88.05,51.490196078431374,-241.0,-52.490196078431374,-37.25,29.17,55.4
88.1,99.49019607843137,-94.0,-113.49019607843137,-26.75,5.02,54.14
88.15,67.49019607843137,-13.0,-6.490196078431373,-37.43,6.21,27.23
88.2,-123.50980392156863,-143.0,101.50980392156863,12.72,3.45,-37.9
88.25,-107.50980392156863,-143.0,316.5098039215686,-31.23,-27.27,-127.46
88.3,-43.509803921568626,-209.0,-172.0,-41.28,-61.85,-190.22
88.35,-91.50980392156863,35.0,-264.0,-51.85,-107.7,-216.5
88.4,313.0,215.0,301.5098039215686,9.01,-148.27,-233.86
88.45,90.0,-35.509803921568626,147.50980392156862,187.75,-238.6,-185.7
88.5,-131.0,62.490196078431374,-160.49019607843138,157.86,-274.09,-136.32
88.55,224.50980392156862,-84.50980392156863,-129.49019607843138,-66.09,-282.0,-106.81
88.6,-315.4901960784314,19.0,-83.49019607843137,-140.08,-258.41,-132.85
88.65,57.01960784313726,3.0,-67.49019607843137,-38.27,-213.79,-172.3
88.7,-260.98039215686276,281.0,-206.49019607843138,-5.12,-156.7,-138.0
88.75,-245.98039215686273,150.0,-252.49019607843138,-86.67,-105.36,-74.09
88.8,-54.98039215686274,-127.0,-98.49019607843137,-82.54,-52.4,-54.56
88.85,-181.98039215686273,-13.0,-206.49019607843138,-100.74,-16.7,-47.49
88.9,41.01960784313726,19.0,-206.49019607843138,-62.07,7.54,-32.51
88.95,-156.49019607843138,68.0,-160.49019607843138,-3.09,40.48,-22.88
89.0,295.01960784313724,183.0,-98.49019607843137,-66.02,47.27,-10.42
89.05,279.01960784313724,52.0,101.50980392156863,-67.07,50.52,23.59
89.1,168.01960784313727,150.0,147.50980392156862,-2.95,45.13,78.75
89.15,152.01960784313727,199.0,101.50980392156863,66.76,39.32,116.86
89.2,152.01960784313727,215.0,162.50980392156862,73.97,36.49,123.79
89.25,231.01960784313727,117.0,178.50980392156862,39.28,27.18,118.19
89.3,231.01960784313727,35.0,224.50980392156862,44.29,12.79,113.47
89.35,216.01960784313727,52.0,193.50980392156862,64.34,2.08,101.08
89.4,216.01960784313727,52.0,147.50980392156862,64.34,-10.4,83.86
89.45,247.01960784313727,3.0,132.50980392156862,58.29,-34.8,50.5
89.5,311.01960784313724,-29.0,132.50980392156862,61.93,-53.73,22.29
89.55,-283.4901960784314,-13.0,101.50980392156863,72.74,-71.3,-4.09
89.6,-283.4901960784314,19.0,70.50980392156863,84.92,-91.46,-33.87
89.65,295.01960784313724,35.0,39.509803921568626,109.56,-111.8,-77.66
89.7,247.01960784313727,68.0,9.509803921568627,138.86,-55.34,-61.35
89.75,-188.49019607843138,117.0,-144.49019607843138,122.16,-7.46,-2.76
89.8,-236.49019607843138,68.0,132.50980392156862,80.79,24.55,19.53
89.85,247.01960784313727,84.0,132.50980392156862,60.98,43.17,20.61
89.9,-267.4901960784314,183.0,178.50980392156862,48.87,56.44,34.16
89.95,-188.49019607843138,199.0,255.50980392156862,60.35,52.48,58.97
90.0,-267.4901960784314,199.0,255.50980392156862,89.4,40.65,68.28
90.05,-267.4901960784314,281.0,-218.0,112.75,30.54,66.6
90.1,-252.49019607843138,-280.5098039215686,-310.0,114.95,28.47,76.4
90.15,-220.49019607843138,-312.5098039215686,-249.0,76.38,29.84,94.43
90.2,-204.49019607843138,248.0,-203.0,55.52,26.51,120.64
90.25,-204.49019607843138,215.0,-249.0,65.74,20.56,135.83
90.3,-204.49019607843138,232.0,-279.0,81.21,14.93,142.62
90.35,-156.49019607843138,248.0,-264.0,80.13,1.24,143.11
90.4,-188.49019607843138,199.0,-233.0,83.21,-27.1,131.35
90.45,-188.49019607843138,166.0,-249.0,110.86,-49.32,111.47
90.5,-220.49019607843138,199.0,-295.0,126.61,-58.46,88.27
