rel_time,acc_x,acc_y,acc_z,gyro_x,gyro_y,gyro_z
947.0,-100.0,-247.50980392156862,-313.4901960784314,26.41,-14.91,23.4
947.05,-195.0,-263.5098039215686,313.01960784313724,18.15,3.0,1.77
947.1,-275.0,-312.5098039215686,236.01960784313727,8.11,20.85,-27.76
947.15,320.5098039215686,281.0,-283.4901960784314,8.07,17.7,-40.71
947.2,-211.0,199.0,-283.4901960784314,17.38,9.41,-50.86
947.25,-147.0,183.0,-252.49019607843138,5.55,3.95,-52.05
947.3,-84.0,166.0,-252.49019607843138,7.48,1.39,-56.18
947.35,-116.0,248.0,-283.4901960784314,-5.18,-11.27,-57.02
947.4,-116.0,297.0,-283.4901960784314,-44.24,0.2,-47.85
947.45,288.5098039215686,-247.50980392156862,282.01960784313724,-14.18,-12.35,-36.86
947.5,-290.0,-214.50980392156862,-206.49019607843138,-19.18,-20.05,-37.52
947.55,224.50980392156862,297.0,-252.49019607843138,-24.05,-13.47,-36.79
947.6,161.50980392156862,-312.5098039215686,-252.49019607843138,-41.44,-1.89,-35.98
947.65,113.50980392156863,281.0,-252.49019607843138,-22.26,-4.34,-30.8
947.7,145.50980392156862,183.0,-236.49019607843138,-17.05,-4.13,-25.69
947.75,240.50980392156862,166.0,-252.49019607843138,-10.26,1.39,-15.61
947.8,224.50980392156862,232.0,-283.4901960784314,-6.58,6.92,-3.89
947.85,208.50980392156862,297.0,-298.4901960784314,5.03,11.93,7.48
947.9,256.5098039215686,264.0,-267.4901960784314,-0.39,17.74,19.97
947.95,304.5098039215686,248.0,-236.49019607843138,3.31,19.56,29.77
948.0,320.5098039215686,313.0,-252.49019607843138,-5.32,11.54,34.5
948.05,-290.0,-312.5098039215686,-206.49019607843138,-14.0,8.18,32.78
948.1,256.5098039215686,-165.50980392156862,-283.4901960784314,-4.59,1.6,17.77
948.15,304.5098039215686,-214.50980392156862,-175.49019607843138,-1.65,-19.14,7.62
948.2,-275.0,-263.5098039215686,-83.49019607843137,-14.18,-21.94,-17.22
948.25,-227.0,-116.50980392156863,-144.49019607843138,-1.75,-14.52,-28.6
948.3,-275.0,-116.50980392156863,-252.49019607843138,-21.74,-3.92,-62.23
948.35,193.50980392156862,-231.50980392156862,-83.49019607843137,54.73,-35.35,-48.93
948.4,-275.0,-214.50980392156862,-160.49019607843138,-99.96,-2.8,-53.17
948.45,224.50980392156862,-100.50980392156863,-144.49019607843138,-53.62,-26.21,-110.57
948.5,279.01960784313724,79.49019607843137,209.50980392156862,-68.36,-24.67,-111.13
948.55,208.50980392156862,319.5098039215686,-98.49019607843137,-40.78,-50.75,-95.97
948.6,-202.50980392156862,74.50980392156863,-310.0,-7.84,-97.44,-93.0
948.65,-315.4901960784314,-51.509803921568626,255.50980392156862,0.06,-100.1,-70.28
948.7,-149.98039215686273,-67.50980392156863,24.50980392156863,29.35,-101.92,-45.43
948.75,27.0,156.50980392156862,-129.49019607843138,49.93,-97.33,-47.74
948.8,-315.4901960784314,-116.50980392156863,-52.490196078431374,-24.33,-57.75,-52.5
948.85,-111.47058823529412,-318.01960784313724,116.50980392156863,-18.62,-45.36,-31.64
948.9,-172.49019607843138,-241.0,101.50980392156863,-9.84,-50.92,-1.93
948.95,-140.49019607843138,-78.0,239.50980392156862,-8.09,-59.74,15.39
949.0,-16.470588235294116,-155.01960784313727,-233.0,-23.91,-47.28,7.79
949.05,57.01960784313726,-176.0,316.5098039215686,-48.79,1.15,-5.01
949.1,161.50980392156862,9.509803921568627,-129.49019607843138,-33.43,12.03,-4.27
949.15,-260.98039215686276,226.49019607843138,-33.0,26.31,-39.13,-31.68
949.2,136.01960784313727,3.0,304.0,-29.96,-62.82,-5.6
949.25,-84.0,-121.49019607843137,301.5098039215686,-49.0,-23.45,-8.16
949.3,238.52941176470588,-253.01960784313727,-295.0,-111.02,11.26,-17.26
949.35,253.52941176470588,177.49019607843138,243.0,-35.63,22.46,-9.49
949.4,18.50980392156863,188.50980392156862,270.5098039215686,6.57,-0.07,3.49
949.45,-45.490196078431374,35.0,-110.0,3.35,-8.43,-4.1
949.5,238.52941176470588,-302.01960784313724,150.0,21.97,-2.13,-8.23
949.55,247.01960784313727,-209.0,58.0,-12.29,9.37,3.03
949.6,120.01960784313725,133.0,255.50980392156862,-7.91,9.09,9.02
949.65,-315.4901960784314,101.0,-64.0,-10.78,10.81,-0.42
949.7,295.01960784313724,35.0,-218.0,-18.52,9.93,2.75
949.75,295.01960784313724,52.0,-141.0,-12.81,4.3,-4.06
949.8,-283.4901960784314,84.0,-64.0,-4.03,16.23,5.48
949.85,200.01960784313727,183.0,-141.0,-17.12,7.9,-4.83
949.9,-188.49019607843138,297.0,-156.0,-28.49,5.38,-6.86
949.95,184.01960784313727,35.0,-156.0,-32.73,3.67,-6.34
950.0,231.01960784313727,117.0,-64.0,-11.87,5.77,-11.24
950.05,-220.49019607843138,-45.0,-141.0,-19.74,8.85,-13.83
950.1,104.01960784313725,-149.50980392156862,-172.0,-13.55,-0.07,-12.04
950.15,126.52941176470588,-302.01960784313724,135.0,15.95,-12.07,-10.12
950.2,-156.49019607843138,254.50980392156862,-95.0,55.04,-17.57,-13.37
950.25,193.50980392156862,205.50980392156862,286.5098039215686,53.08,-10.6,-8.23
950.3,238.52941176470588,193.49019607843138,-156.0,-1.19,-36.36,5.41
950.35,104.01960784313725,232.0,-184.50980392156862,9.02,-56.38,-16.98
950.4,74.0,74.50980392156863,-79.0,-19.81,-24.08,-2.73
950.45,41.01960784313726,264.0,239.50980392156862,-34.76,-14.87,8.25
950.5,174.52941176470588,-18.50980392156863,166.0,-16.21,-13.96,0.13
950.55,49.509803921568626,107.50980392156863,-264.0,-1.86,-21.31,-8.02
950.6,-29.49019607843137,-274.0,316.5098039215686,-20.48,-6.02,-0.67
950.65,126.52941176470588,-253.01960784313727,289.0,-2.73,-9.59,-6.79
950.7,263.01960784313724,-160.0,73.0,-4.27,-13.12,-5.5
950.75,-195.0,-187.49019607843138,316.5098039215686,-13.37,0.38,-4.76
950.8,-229.98039215686273,-2.5098039215686274,120.0,-9.24,-1.4,-5.25
950.85,-260.98039215686276,-198.50980392156862,135.0,-0.35,-1.15,-6.27
950.9,-243.0,-252.49019607843138,-279.0,1.07,6.43,-2.8
950.95,311.01960784313724,52.0,-218.0,6.32,16.69,3.63
951.0,110.52941176470588,209.49019607843138,212.0,9.19,19.49,-5.71
951.05,-77.49019607843137,123.50980392156863,-141.0,8.21,19.31,-15.47
951.1,145.50980392156862,139.50980392156862,-218.0,10.73,12.7,-10.89
951.15,88.01960784313725,150.0,-49.0,11.47,17.25,-6.37
951.2,263.01960784313724,-94.0,12.0,7.13,14.55,-7.0
951.25,-267.4901960784314,-78.0,-18.0,8.32,14.38,-4.31
951.3,279.01960784313724,-62.0,-3.0,0.79,16.27,-6.69
951.35,279.01960784313724,-62.0,-3.0,1.49,17.56,-1.44
951.4,247.01960784313727,-45.0,-80.0,0.69,14.2,-5.78
951.45,231.01960784313727,19.0,-80.0,4.99,12.42,-9.24
951.5,279.01960784313724,-78.0,-64.0,10.1,3.28,-5.18
951.55,-315.4901960784314,-127.0,-95.0,3.77,5.52,-4.76
951.6,200.01960784313727,-94.0,-49.0,2.82,2.3,-5.71
951.65,256.5098039215686,-56.490196078431374,-310.0,-10.05,8.01,-6.83
951.7,231.01960784313727,3.0,-279.0,-5.92,-2.06,-1.19
951.75,190.52941176470588,307.4901960784314,43.0,22.6,-23.9,6.6
951.8,110.52941176470588,-35.509803921568626,73.0,-4.41,13.4,0.9
951.85,-260.98039215686276,-143.0,58.0,8.35,19.42,9.72
951.9,34.509803921568626,227.01960784313727,209.50980392156862,1.11,27.5,-5.46
951.95,-163.0,276.01960784313724,70.50980392156863,-6.02,44.69,-0.25
952.0,-283.4901960784314,156.50980392156862,147.50980392156862,3.8,50.95,7.44
952.05,-308.98039215686276,-247.50980392156862,255.50980392156862,-3.01,52.53,13.64
952.1,-223.47058823529412,-138.01960784313727,104.0,0.79,37.44,14.3
952.15,-0.47058823529411764,95.49019607843137,12.0,-5.39,35.24,28.65
952.2,72.01960784313725,-274.0,-79.0,-33.53,38.04,27.29
952.25,240.50980392156862,292.01960784313724,-18.0,-38.4,-31.99,14.51
952.3,11.0,-187.49019607843138,-218.0,34.99,-114.27,-49.25
952.35,-140.49019607843138,297.0,-129.49019607843138,94.31,-173.28,-24.5
952.4,-181.98039215686273,236.98039215686273,-129.49019607843138,-18.83,132.29,63.76
952.45,-54.98039215686274,139.50980392156862,-236.49019607843138,15.56,140.55,37.37
952.5,-95.47058823529412,-198.50980392156862,-310.0,-30.03,316.43,102.12
952.55,-22.980392156862745,-203.49019607843138,-18.0,-0.56,-232.57,102.57
952.6,313.0,194.01960784313727,39.509803921568626,86.33,-212.09,73.7
952.65,122.0,183.0,258.0,132.43,-145.42,53.78
952.7,97.50980392156863,160.49019607843138,-46.509803921568626,87.87,-139.36,13.92
952.75,-139.50980392156862,-241.0,58.0,-106.44,-246.5,53.15
952.8,-56.529411764705884,107.50980392156863,-181.01960784313727,-95.06,-317.41,70.16
952.85,12.980392156862745,-62.0,-261.5098039215686,-87.29,-304.0,40.27
952.9,-225.01960784313727,193.49019607843138,-144.49019607843138,-149.45,312.51,34.04
952.95,-241.01960784313727,-84.50980392156863,70.50980392156863,-144.31,192.21,60.12
953.0,-27.50980392156863,-307.0,-64.0,-88.9,121.51,79.26
953.05,-311.52941176470586,254.50980392156862,27.0,-47.15,48.5,26.45
953.1,-130.01960784313727,319.5098039215686,215.49019607843138,-39.69,41.19,7.72
953.15,210.49019607843138,-94.0,277.4901960784314,-16.07,34.61,2.09
953.2,306.4901960784314,107.50980392156863,-76.50980392156863,-8.96,-1.68,12.24
953.25,194.49019607843138,205.50980392156862,0.49019607843137253,-8.19,-36.68,-15.86
953.3,-202.50980392156862,-209.0,-30.50980392156863,8.88,-46.41,-2.21
953.35,-170.50980392156862,-209.0,289.0,-1.05,-29.12,9.12
953.4,233.0,-225.0,150.0,2.3,11.26,7.58
953.45,265.0,-225.0,166.0,-2.49,84.52,-17.08
953.5,-154.50980392156862,-176.0,-292.5098039215686,9.93,-11.86,-23.87
953.55,242.49019607843138,205.50980392156862,-122.50980392156863,67.01,-128.03,-84.18
953.6,-282.5098039215686,156.50980392156862,-138.50980392156862,151.4,-176.26,-68.36
953.65,-305.01960784313724,188.50980392156862,-107.50980392156863,218.67,-286.05,-76.55
953.7,-186.50980392156862,-78.0,-64.0,296.61,251.5,-73.22
953.75,258.4901960784314,35.0,9.509803921568627,202.46,176.25,-50.86
953.8,-114.01960784313725,-2.5098039215686274,-113.49019607843137,-129.33,311.45,106.95
953.85,-72.52941176470588,79.49019607843137,205.01960784313727,-64.54,-163.57,-29.96
953.9,-76.05882352941177,84.52941176470588,279.94117647058823,-197.58,231.9,141.6
953.95,-260.98039215686276,221.50980392156862,43.0,-82.85,196.58,-57.54
954.0,-320.01960784313724,264.0,292.4901960784314,-141.05,-211.92,-114.42
954.05,285.52941176470586,193.49019607843138,107.49019607843137,-22.12,-242.23,-187.29
954.1,311.01960784313724,95.49019607843137,-203.0,18.26,-217.45,-120.82
954.15,142.52941176470588,-263.5098039215686,286.5098039215686,-64.79,-136.18,-85.23
954.2,229.0392156862745,3.0,43.0,-7.0,-94.78,-47.01
954.25,245.0392156862745,177.49019607843138,190.01960784313727,-44.59,47.38,14.62
954.3,-238.47058823529412,-78.0,-252.49019607843138,-50.75,17.56,40.1
954.35,-108.49019607843137,-94.0,55.509803921568626,-33.18,44.27,3.59
954.4,-61.490196078431374,264.0,-280.0,19.97,16.51,-34.3
954.45,-100.0,3.0,-80.0,-2.56,21.66,-35.56
954.5,-77.49019607843137,117.0,-249.0,51.05,-28.28,-26.74
954.55,-204.49019607843138,52.0,89.0,-24.15,30.76,-2.24
954.6,184.01960784313727,-209.0,-49.0,37.16,-11.55,-14.67
954.65,129.50980392156862,-13.0,255.50980392156862,20.57,-41.12,-13.34
954.7,311.01960784313724,-192.0,-141.0,-11.38,6.96,-14.95
954.75,-308.98039215686276,232.0,-3.0,-23.28,28.27,1.35
954.8,-165.98039215686273,52.0,150.0,15.88,-1.99,-4.27
954.85,-267.4901960784314,35.0,-264.0,29.35,-24.11,-13.13
954.9,279.01960784313724,-45.0,-203.0,37.61,-35.73,-19.39
954.95,295.01960784313724,35.0,-203.0,28.55,-32.27,-4.97
955.0,263.01960784313724,-127.0,-187.0,115.73,-274.57,-112.95
955.05,72.01960784313725,-127.0,-95.0,-189.77,127.6,200.01
955.1,44.549019607843135,313.52941176470586,-158.0392156862745,81.82,-59.78,-73.75
955.15,272.5098039215686,275.4901960784314,-280.0,1.77,29.6,22.07
955.2,-48.470588235294116,156.50980392156862,-52.490196078431374,20.01,45.14,22.49
955.25,57.01960784313726,297.0,55.509803921568626,-4.59,45.74,31.49
955.3,-6.980392156862745,-62.0,301.5098039215686,-22.12,58.23,30.93
955.35,25.019607843137255,-29.0,-126.0,-2.94,34.68,34.46
955.4,216.01960784313727,-45.0,-249.0,-3.5,14.8,35.9
955.45,-315.4901960784314,19.0,-249.0,-29.05,-24.39,-0.88
955.5,-283.4901960784314,-13.0,43.0,-7.04,-89.32,-39.8
955.55,161.50980392156862,-78.0,-156.0,262.17,-143.81,-99.96
955.6,81.50980392156863,62.490196078431374,-160.49019607843138,-167.86,162.6,-114.8
955.65,-32.470588235294116,-121.49019607843137,-178.98039215686273,55.01,154.62,147.44
955.7,301.52941176470586,-268.4901960784314,221.01960784313727,-22.54,264.14,80.91
955.75,15.529411764705882,19.0,-18.0,-2.98,303.62,128.75
955.8,279.01960784313724,-13.0,193.50980392156862,-0.32,322.94,115.56
955.85,193.50980392156862,84.0,-64.0,28.58,-216.47,46.82
955.9,-45.490196078431374,297.0,123.49019607843137,-20.44,-117.38,36.04
955.95,-243.0,156.50980392156862,49.98039215686274,-177.31,324.93,35.13
956.0,-170.50980392156862,286.5098039215686,-192.52941176470588,-83.72,-299.38,204.11
956.05,-292.54901960784315,221.50980392156862,178.50980392156862,-62.13,306.91,132.43
956.1,-206.0392156862745,-111.0,-187.0,-201.92,-182.27,92.39
956.15,81.50980392156863,-302.01960784313724,-259.47058823529414,-257.5,285.59,97.08
956.2,-11.509803921568627,-165.50980392156862,-18.0,-82.46,83.22,106.84
956.25,-279.52941176470586,-241.0,-206.49019607843138,-6.37,-45.32,21.13
956.3,-289.01960784313724,166.0,-61.509803921568626,-14.39,-7.42,-0.35
956.35,-82.01960784313725,183.0,-212.01960784313727,4.33,17.25,33.83
956.4,-66.01960784313725,286.5098039215686,-107.50980392156863,-36.4,40.66,32.36
956.45,-50.01960784313726,319.5098039215686,276.4901960784314,-6.37,-17.53,-22.37
956.5,35.490196078431374,303.5098039215686,15.490196078431373,24.21,-43.01,-16.98
956.55,99.49019607843137,156.50980392156862,-307.5098039215686,11.75,-28.0,-8.79
956.6,-139.50980392156862,-225.0,-246.50980392156862,4.29,-10.43,18.92
956.65,-186.50980392156862,319.5098039215686,273.0,1.6,10.35,29.95
956.7,-313.5098039215686,-111.0,150.0,3.17,49.2,21.79
956.75,313.0,-160.0,289.0,-5.67,68.84,1.07
956.8,-170.50980392156862,286.5098039215686,-215.50980392156862,37.89,-49.49,-78.82
956.85,-123.50980392156863,221.50980392156862,-184.50980392156862,117.62,-175.49,-134.37
956.9,-59.509803921568626,-290.0,-215.50980392156862,231.13,-308.7,-142.0
956.95,274.4901960784314,-127.0,120.0,320.83,188.88,-174.62
957.0,115.49019607843137,-198.50980392156862,-21.49019607843137,299.76,195.15,-105.42
957.05,-50.01960784313726,128.49019607843138,267.01960784313724,-236.43,-150.22,151.5
957.1,308.47058823529414,269.98039215686276,260.03921568627453,-178.05,-196.68,127.42
957.15,-133.54901960784315,-247.45098039215685,71.92156862745098,-147.56,239.77,-113.93
957.2,292.03921568627453,-258.52941176470586,-107.50980392156863,72.12,270.19,-121.38
957.25,-305.01960784313724,-133.50980392156862,153.49019607843138,-207.03,-104.16,-75.32
957.3,292.03921568627453,-225.0,-126.0,-36.75,-209.44,-120.96
957.35,-315.4901960784314,30.49019607843137,206.01960784313727,3.98,-210.28,-77.84
957.4,126.52941176470588,-149.50980392156862,-21.49019607843137,-24.54,-140.45,-61.78
957.45,222.52941176470588,-192.0,-233.0,-49.7,-54.84,-38.92
957.5,-175.47058823529412,183.0,-6.490196078431373,-20.72,36.18,33.59
957.55,-292.98039215686276,-78.0,-187.0,-8.82,17.28,11.61
957.6,18.50980392156863,52.0,163.50980392156862,-5.81,48.64,-43.3
957.65,-108.49019607843137,-214.50980392156862,-3.0,4.54,33.35,-24.12
957.7,81.50980392156863,-94.0,-249.0,5.27,19.24,-27.48
957.75,-77.49019607843137,35.0,-279.0,18.33,-9.87,-10.22
957.8,-156.49019607843138,-62.0,-310.0,32.92,-33.14,-19.01
957.85,-61.490196078431374,-78.0,-310.0,-18.06,6.05,-6.51
957.9,136.01960784313727,-111.0,-18.0,20.43,-28.77,-10.29
957.95,311.01960784313724,-29.0,-110.0,-1.47,-4.51,-7.25
958.0,216.01960784313727,-29.0,-18.0,3.0,-9.34,-4.83
958.05,231.01960784313727,-62.0,-172.0,16.75,-17.08,-6.58
958.1,263.01960784313724,-62.0,-126.0,-4.2,-4.58,0.13
958.15,216.01960784313727,-143.0,-126.0,-20.41,3.14,0.51
958.2,-38.98039215686274,-78.0,12.0,15.6,-32.2,-18.9
958.25,136.01960784313727,-45.0,-95.0,64.25,-128.66,-82.15
958.3,57.01960784313726,-13.0,-249.0,-23.24,97.57,99.63
958.35,-123.94117647058823,90.50980392156863,-156.0,-106.79,66.84,-29.93
958.4,184.01960784313727,30.49019607843137,82.01960784313725,-34.62,79.55,39.61
958.45,15.529411764705882,264.0,147.50980392156862,-12.92,66.6,40.69
958.5,-165.98039215686273,-160.0,104.0,-13.83,64.08,45.87
958.55,9.019607843137255,-45.0,-279.0,-11.45,54.87,33.45
958.6,263.01960784313724,-13.0,89.0,-16.73,25.96,30.44
958.65,-283.4901960784314,35.0,-249.0,-44.98,-0.77,0.37
958.7,-236.49019607843138,3.0,43.0,-0.91,-46.23,-28.63
958.75,65.50980392156863,166.0,12.0,147.93,-145.11,-52.57
958.8,-147.0,133.0,-298.4901960784314,-68.22,154.13,-105.84
958.85,245.0392156862745,177.49019607843138,-117.98039215686275,-64.54,204.01,150.84
958.9,94.52941176470588,248.52941176470588,-308.96078431372547,-79.98,264.94,113.32
958.95,126.52941176470588,-133.50980392156862,-110.0,13.32,280.8,117.06
959.0,-117.98039215686275,313.0,-156.0,-65.45,-224.27,105.23
959.05,295.01960784313724,-45.0,-292.5098039215686,18.36,-140.45,7.27
959.1,-77.49019607843137,-214.50980392156862,138.49019607843138,-58.77,-113.53,55.88
959.15,42.0,25.50980392156863,-254.52941176470588,-156.21,310.93,107.58
959.2,79.96078431372548,-236.49019607843138,-107.50980392156863,-52.68,321.26,287.27
959.25,235.98039215686273,-18.50980392156863,-9.980392156862745,-27.72,-239.71,161.13
959.3,-286.03921568627453,-106.01960784313725,101.50980392156863,-196.39,-286.33,80.66
959.35,2.5098039215686274,253.98039215686273,236.01960784313727,-91.74,188.43,111.04
959.4,-72.52941176470588,308.01960784313724,-267.4901960784314,-60.24,35.8,64.07
959.45,-305.01960784313724,-143.0,184.49019607843138,-11.59,1.57,9.93
959.5,-273.01960784313724,-285.4901960784314,-227.01960784313727,-10.99,40.03,38.1
959.55,-209.01960784313727,270.5098039215686,-258.01960784313724,-31.75,31.81,27.36
959.6,99.49019607843137,205.50980392156862,246.49019607843138,5.97,-17.08,5.59
959.65,163.49019607843138,-23.49019607843137,-153.50980392156862,11.89,-22.75,-13.48
959.7,-123.50980392156863,221.50980392156862,-153.50980392156862,11.26,-17.99,11.5
959.75,-154.50980392156862,-241.0,273.0,3.49,4.26,16.96
959.8,233.0,-225.0,243.0,-9.63,36.39,24.94
959.85,297.0,-209.0,181.0,-0.95,88.82,20.92
959.9,-298.5098039215686,-258.0,258.0,6.43,6.78,-15.58
959.95,19.49019607843137,-154.49019607843138,277.4901960784314,84.69,-128.1,-106.96
960.0,138.0,-72.49019607843137,304.0,151.54,-174.58,-91.25
960.05,290.4901960784314,58.509803921568626,30.49019607843137,268.65,-287.03,-133.67
960.1,99.49019607843137,35.0,-80.0,325.84,182.97,-150.85
960.15,210.49019607843138,-214.50980392156862,270.5098039215686,220.45,160.57,-109.94
960.2,-177.01960784313727,-138.01960784313727,-144.49019607843138,-245.7,-122.74,155.46
960.25,245.47058823529412,-220.01960784313727,63.529411764705884,-92.65,-124.65,39.4
960.3,-51.568627450980394,52.05882352941177,-193.5686274509804,-90.16,210.27,-125.37
960.35,-236.49019607843138,40.98039215686274,-246.50980392156862,55.92,283.28,-128.91
960.4,-18.019607843137255,-149.50980392156862,-242.01960784313727,-136.57,-174.26,-129.64
960.45,-95.47058823529412,-62.0,-126.0,-69.3,-197.85,-151.94
960.5,25.019607843137255,95.49019607843137,-267.4901960784314,17.03,-216.16,-113.44
960.55,-6.980392156862745,35.0,-129.49019607843138,18.19,-193.62,-69.79
960.6,-213.98039215686273,-111.0,255.50980392156862,-34.27,-83.72,-55.9
960.65,-64.47058823529412,-62.0,301.5098039215686,2.61,-9.41,5.34
960.7,-181.98039215686273,-45.0,-233.0,-37.1,40.7,60.15
960.75,247.01960784313727,-111.0,-279.0,3.8,19.49,-25.34
960.8,304.5098039215686,-312.5098039215686,301.5098039215686,-11.27,38.25,-39.52
960.85,-13.490196078431373,133.0,-295.0,29.35,-12.28,-47.11
960.9,49.509803921568626,-160.0,-64.0,30.26,-16.41,-21.88
960.95,295.01960784313724,-78.0,-141.0,21.34,-1.29,3.84
961.0,247.01960784313727,-62.0,-18.0,-42.18,46.3,5.94
961.05,-22.980392156862745,-62.0,135.0,38.87,-21.84,0.97
961.1,-77.49019607843137,-45.0,-279.0,30.72,-30.24,-8.86
961.15,-188.49019607843138,-78.0,-203.0,-29.19,2.79,-3.57
961.2,41.01960784313726,-111.0,-18.0,26.03,-24.39,-10.92
961.25,41.01960784313726,19.0,27.0,22.7,-42.52,-26.57
961.3,247.01960784313727,19.0,-172.0,33.03,-20.47,-21.88
961.35,-86.98039215686275,-111.0,-187.0,-249.8,88.79,258.95
961.4,-269.921568627451,215.52941176470588,27.0,53.12,-50.71,-37.49
961.45,253.52941176470588,62.96078431372549,-160.49019607843138,199.17,-245.77,-119.14
961.5,-290.0,41.509803921568626,196.0,-91.18,100.41,118.6
961.55,110.52941176470588,-138.49019607843138,-215.50980392156862,50.7,-2.41,-8.16
961.6,247.01960784313727,-165.50980392156862,-98.49019607843137,-65.84,92.11,58.16
961.65,-197.98039215686273,-160.0,-126.0,20.43,12.98,7.51
961.7,-172.49019607843138,-312.5098039215686,209.50980392156862,-34.23,13.54,24.7
961.75,-267.4901960784314,3.0,-203.0,0.41,-28.84,-26.08
961.8,208.50980392156862,232.0,-310.0,179.71,-134.36,-52.85
961.85,-290.0,84.0,316.5098039215686,-61.67,119.62,-231.42
961.9,-0.47058823529411764,30.49019607843137,113.01960784313725,-115.64,241.53,150.14
961.95,272.5098039215686,-35.450980392156865,193.50980392156862,35.93,179.37,-0.81
962.0,206.52941176470588,242.49019607843138,-172.0,-73.85,324.02,139.67
962.05,222.52941176470588,-127.0,-233.0,-7.14,-310.13,149.93
962.1,97.50980392156863,101.0,181.0,46.71,-166.63,59.8
962.15,-124.49019607843137,281.0,123.49019607843137,-4.8,-89.8,38.17
962.2,-211.0,-192.0,-273.01960784313724,-109.66,-216.75,44.44
962.25,-186.50980392156862,-236.49019607843138,38.470588235294116,-290.75,-286.71,246.18
962.3,291.921568627451,128.49019607843138,-292.5098039215686,-129.85,-325.14,135.58
962.35,165.47058823529412,-13.0,101.50980392156863,-176.68,-301.34,26.73
962.4,49.509803921568626,-94.52941176470588,186.52941176470588,-134.51,204.08,109.85
962.45,-263.52941176470586,-280.5098039215686,61.490196078431374,-68.36,67.93,76.64
962.5,131.49019607843138,-312.5098039215686,249.98039215686273,-19.22,18.05,41.25
962.55,-18.019607843137255,25.50980392156863,-150.01960784313727,-21.95,49.06,34.01
962.6,290.4901960784314,-225.0,292.4901960784314,-3.22,-1.12,33.41
962.65,-320.01960784313724,-40.490196078431374,-15.509803921568627,6.22,-12.21,5.34
962.7,-114.01960784313725,-187.49019607843138,-184.50980392156862,-8.58,2.93,22.67
962.75,51.490196078431374,237.50980392156862,-184.50980392156862,1.95,-13.3,46.4
962.8,281.0,-290.0,135.0,-4.66,42.41,56.79
962.85,297.0,-94.0,196.0,-10.96,76.85,40.31
962.9,249.0,-176.0,212.0,-18.66,98.38,17.24
962.95,-154.50980392156862,221.50980392156862,273.0,40.55,-72.38,-82.85
963.0,106.0,-225.0,-276.5098039215686,106.04,-165.13,-131.32
963.05,67.49019607843137,90.50980392156863,-261.5098039215686,204.74,-244.02,-126.04
963.1,4.490196078431373,188.50980392156862,166.0,311.73,265.11,-140.39
963.15,83.49019607843137,-241.0,286.5098039215686,273.3,127.91,-171.43
963.2,290.4901960784314,111.49019607843137,-52.490196078431374,157.73,209.6,-95.31
963.25,-82.01960784313725,-187.01960784313727,201.52941176470588,-271.04,-162.55,-61.29
963.3,304.94117647058823,-204.01960784313727,-153.50980392156862,-248.82,-291.51,213.49
963.35,-29.49019607843137,74.50980392156863,34.98039215686274,-3.71,133.27,-19.78
963.4,-84.0,-220.01960784313727,-233.0,-34.48,-260.75,-136.54
963.45,79.52941176470588,-280.5098039215686,-153.50980392156862,-6.69,-244.33,-156.14
963.5,-252.49019607843138,117.0,-295.0,-15.23,-234.29,-87.68
963.55,47.529411764705884,101.0,116.50980392156863,-5.29,-200.16,-67.87
963.6,276.03921568627453,215.0,-295.0,-46.55,-82.14,-26.5
963.65,133.0392156862745,297.0,298.01960784313724,-32.59,-16.66,17.17
963.7,-260.98039215686276,-29.0,-98.49019607843137,-56.18,24.53,63.23
963.75,-299.4901960784314,-45.0,-203.0,9.68,10.53,-24.05
963.8,-195.0,248.0,301.5098039215686,-16.8,28.31,-38.57
963.85,2.5098039215686274,101.0,-110.0,-8.05,13.43,-30.7
963.9,-29.49019607843137,52.0,-203.0,23.23,-16.27,-10.01
963.95,-124.49019607843137,-62.0,-279.0,16.44,-14.03,-15.72
964.0,216.01960784313727,19.0,-79.0,30.61,-11.76,-13.02
964.05,-299.4901960784314,-62.0,89.0,5.59,11.26,9.89
964.1,-54.98039215686274,-78.0,27.0,-42.7,34.61,-5.01
964.15,317.52941176470586,-29.0,166.0,52.38,-22.19,-16.45
964.2,200.01960784313727,84.0,-203.0,17.03,-10.22,-5.64
964.25,168.01960784313727,-62.0,-95.0,-24.68,-6.65,-9.63
964.3,9.019607843137255,303.5098039215686,-18.0,40.94,-119.03,-72.84
964.35,-101.98039215686275,35.0,-264.0,-9.31,69.22,159.94
964.4,-159.47058823529412,74.50980392156863,-135.01960784313727,-84.49,39.19,-41.48
964.45,285.52941176470586,193.49019607843138,132.50980392156862,102.64,-69.23,-78.05
964.5,-181.98039215686273,199.0,101.50980392156863,-42.32,70.2,95.36
964.55,-181.98039215686273,139.50980392156862,-49.0,21.09,24.25,13.64
964.6,311.01960784313724,68.0,316.5098039215686,-50.75,75.07,47.13
964.65,-86.98039215686275,-143.0,89.0,-9.31,39.33,14.37
964.7,-315.4901960784314,101.0,286.5098039215686,-27.41,21.17,16.65
964.75,-283.4901960784314,-29.0,-3.0,30.23,-35.84,-12.92
964.8,-259.0,199.0,255.50980392156862,-316.15,-112.59,-81.62
964.85,-259.0,150.0,-110.0,-178.36,195.57,-184.21
964.9,-302.47058823529414,183.0,190.01960784313727,-118.06,245.45,164.35
964.95,-120.96078431372548,80.01960784313725,60.03921568627451,124.9,171.0,47.76
965.0,190.52941176470588,89.98039215686275,255.50980392156862,-161.77,-211.81,193.89
965.05,-48.470588235294116,-29.0,-110.0,76.57,-171.91,35.65
965.1,272.5098039215686,-2.5098039215686274,200.49019607843138,-31.89,-16.2,81.47
965.15,-140.49019607843138,107.50980392156863,218.98039215686273,-96.64,-180.98,54.03
965.2,226.49019607843138,123.50980392156863,264.98039215686276,-126.11,308.55,99.11
965.25,142.9607843137255,52.0,-276.5098039215686,-3.96,285.87,182.69
965.3,222.9607843137255,-8.019607843137255,-267.4901960784314,-119.28,-269.67,106.81
965.35,-313.5098039215686,-45.0,-252.49019607843138,-153.37,194.28,113.42
965.4,-234.50980392156862,-258.0,227.0,-107.73,120.25,94.0
965.45,108.98039215686275,41.509803921568626,212.0,-16.66,-18.2,13.95
965.5,210.49019607843138,254.50980392156862,261.4901960784314,-12.78,21.41,-0.14
965.55,-289.01960784313724,84.0,-227.01960784313727,-20.65,24.18,19.94
965.6,-82.01960784313725,172.50980392156862,30.49019607843137,-1.33,-20.89,-3.82
965.65,51.490196078431374,286.5098039215686,-107.50980392156863,-1.3,4.54,20.11
965.7,67.49019607843137,286.5098039215686,-153.50980392156862,-3.22,2.55,47.34
965.75,281.0,-274.0,150.0,-5.15,41.29,52.7
965.8,281.0,-143.0,181.0,-13.55,76.43,43.81
965.85,297.0,-176.0,304.0,-24.22,98.03,32.5
965.9,-154.50980392156862,254.50980392156862,304.0,24.84,-59.32,-67.24
965.95,265.0,-307.0,-276.5098039215686,66.66,-118.44,-100.63
966.0,35.490196078431374,188.50980392156862,-30.50980392156863,143.8,-178.92,-84.46
966.05,-43.509803921568626,205.50980392156862,181.0,265.25,-326.62,-136.22
966.1,-91.50980392156863,-62.0,-233.0,265.46,197.84,-170.56
966.15,226.49019607843138,-67.50980392156863,-280.0,208.62,164.73,-136.54
966.2,-257.01960784313724,-318.01960784313724,159.01960784313727,-274.12,-104.54,171.77
966.25,-206.0392156862745,291.4901960784314,-44.470588235294116,-232.51,-90.24,147.79
966.3,-204.05882352941177,-111.94117647058823,-178.5686274509804,-140.46,150.87,-80.19
966.35,97.50980392156863,-35.509803921568626,196.0,-24.12,271.97,-111.13
966.4,-91.50980392156863,-214.50980392156862,107.49019607843137,-159.71,-129.5,-121.1
966.45,15.529411764705882,-116.50980392156863,-169.50980392156862,-37.94,-190.89,-196.18
966.5,-38.98039215686274,-171.01960784313727,-175.49019607843138,-16.31,-208.49,-106.3
966.55,-292.98039215686276,-296.5098039215686,-113.49019607843137,4.85,-160.54,-84.91
966.6,126.52941176470588,183.0,255.50980392156862,-73.82,-31.36,-41.62
966.65,-175.47058823529412,-160.0,101.50980392156863,-11.48,12.63,10.91
966.7,-86.98039215686275,-78.0,209.50980392156862,-19.29,23.48,27.71
966.75,-29.49019607843137,3.0,-3.0,15.53,24.28,-29.4
966.8,240.50980392156862,215.0,-79.0,-29.05,41.82,-15.26
966.85,-172.49019607843138,-62.0,-110.0,17.84,9.51,-30.0
966.9,240.50980392156862,3.0,301.5098039215686,41.85,-39.09,-13.23
966.95,177.50980392156862,-209.0,239.50980392156862,22.18,-21.52,-1.51
967.0,104.01960784313725,117.0,-49.0,-16.14,19.07,5.76
967.05,-165.98039215686273,-13.0,289.0,-13.76,15.39,7.44
967.1,168.01960784313727,-62.0,-95.0,52.49,-28.07,-23.42
967.15,-172.49019607843138,35.0,-279.0,8.77,-24.78,-9.35
967.2,-252.49019607843138,-111.0,224.50980392156862,11.64,-17.85,-4.34
967.25,216.01960784313727,319.5098039215686,-64.0,-27.09,-3.04,-9.87
967.3,-54.98039215686274,-209.0,73.0,0.72,-38.11,-32.45
967.35,-38.98039215686274,-62.0,-203.0,32.05,30.83,-1.02
967.4,165.0392156862745,-29.0,-182.47058823529412,-45.33,17.11,9.86
967.45,126.52941176470588,52.0,-61.509803921568626,-13.86,52.28,41.64
967.5,9.019607843137255,-252.49019607843138,123.49019607843137,-13.06,74.82,62.29
967.55,110.52941176470588,-176.0,-92.50980392156863,-1.72,48.19,35.97
967.6,-70.98039215686275,35.0,-80.0,-29.47,57.95,58.09
967.65,-38.98039215686274,254.50980392156862,89.0,0.2,27.57,23.26
967.7,295.01960784313724,133.0,163.50980392156862,-24.12,33.49,36.46
967.75,200.01960784313727,-111.0,-187.0,-3.05,12.42,16.68
967.8,-77.49019607843137,183.0,-233.0,-68.29,28.06,35.48
967.85,272.5098039215686,-192.0,58.0,33.87,-4.06,22.25
967.9,-259.0,183.0,-218.0,209.01,-93.83,-32.27
967.95,27.0,-67.50980392156863,217.52941176470588,60.26,210.52,-144.94
968.0,-260.98039215686276,-231.50980392156862,-240.98039215686273,52.35,173.56,5.9
968.05,-70.98039215686275,139.50980392156862,109.52941176470588,-3.54,289.16,134.98
968.1,63.529411764705884,-138.49019607843138,-141.0,-84.84,-260.92,186.78
968.15,-236.49019607843138,-143.0,73.0,30.23,-175.69,72.3
968.2,224.50980392156862,-133.50980392156862,73.0,138.03,-131.17,50.28
968.25,145.50980392156862,-296.5098039215686,261.4901960784314,-93.77,-217.69,53.12
968.3,-59.509803921568626,-170.49019607843138,-131.52941176470588,-204.4,-257.8,252.83
968.35,270.96078431372547,237.50980392156862,289.0,-72.03,309.04,62.15
968.4,-38.549019607843135,-182.50980392156862,-110.0,-200.31,-235.86,18.12
968.45,145.50980392156862,-2.5098039215686274,302.54901960784315,-200.45,272.71,118.88
968.5,155.98039215686273,221.50980392156862,289.0,-71.12,80.28,77.65
968.55,226.49019607843138,221.50980392156862,115.47058823529412,-0.49,-4.48,35.86
968.6,-130.01960784313727,-7.490196078431373,92.49019607843137,-19.29,36.64,16.3
968.65,147.49019607843138,90.50980392156863,-230.50980392156862,6.78,-11.16,23.33
968.7,274.4901960784314,243.01960784313727,-30.50980392156863,-0.67,-31.57,-20.2
968.75,-170.50980392156862,-72.49019607843137,-61.509803921568626,-1.26,-15.85,24.52
968.8,-59.509803921568626,41.509803921568626,-169.50980392156862,5.8,-23.31,21.16
968.85,186.0,-258.0,43.0,3.59,12.17,15.18
968.9,154.0,-13.0,227.0,-0.35,87.04,7.93
968.95,-91.50980392156863,-225.0,-199.50980392156862,-23.1,86.51,-5.92
969.0,163.49019607843138,254.50980392156862,46.490196078431374,73.35,-123.76,-95.83
969.05,154.0,74.50980392156863,304.0,140.41,-197.08,-113.47
969.1,115.49019607843137,254.50980392156862,-107.50980392156863,222.38,-300.47,-151.1
969.15,35.490196078431374,35.0,-49.0,287.41,192.24,-175.35
969.2,147.49019607843138,-280.5098039215686,132.50980392156862,221.61,153.04,-135.28
969.25,-34.01960784313726,-269.01960784313724,-267.4901960784314,-191.49,-114.17,173.83
969.3,134.47058823529412,24.980392156862745,-28.470588235294116,-180.15,-189.96,106.91
969.35,-278.0980392156863,-35.92156862745098,186.90196078431373,-176.51,277.08,-7.18
969.4,-111.47058823529412,95.49019607843137,227.0,32.75,222.2,-143.4
969.45,147.49019607843138,183.0,-122.50980392156863,-146.41,-93.27,-165.9
969.5,165.0392156862745,264.0,46.490196078431374,54.59,-268.38,-177.45
969.55,113.50980392156863,-263.5098039215686,-187.0,-29.3,-222.42,-110.95
969.6,79.52941176470588,-241.0,-264.0,-29.47,-173.14,-60.83
969.65,-48.470588235294116,-127.0,-203.0,-77.95,-35.17,-0.53
969.7,292.03921568627453,-209.0,-126.0,1.18,-23.31,15.49
969.75,247.01960784313727,-29.0,178.50980392156862,-17.47,14.52,52.1
969.8,-267.4901960784314,-78.0,-33.0,-7.63,32.47,-28.04
969.85,272.5098039215686,248.0,-141.0,-17.71,46.47,-36.26
969.9,18.50980392156863,-62.0,-79.0,-5.43,17.42,-43.12
969.95,272.5098039215686,-13.0,132.50980392156862,74.75,-41.09,-23.49
970.0,-93.49019607843137,-62.0,-79.0,14.2,1.95,3.0
970.05,136.01960784313727,-62.0,58.0,1.98,14.27,-6.44
970.1,120.01960784313725,-13.0,27.0,-26.22,38.95,11.43
970.15,-165.98039215686273,-78.0,227.0,-29.44,34.33,-5.18
970.2,231.01960784313727,52.0,-64.0,43.32,-19.18,-22.86
970.25,-93.49019607843137,-290.0,-249.0,21.37,-22.99,-14.56
970.3,88.01960784313725,-176.0,-49.0,-16.49,-8.85,-8.75
970.35,-86.98039215686275,-94.0,104.0,38.0,-64.47,-49.88
970.4,-101.98039215686275,3.0,-203.0,65.65,43.81,43.07
970.45,-165.98039215686273,-241.0,-264.0,-79.31,157.25,45.63
970.5,258.05882352941177,-23.49019607843137,46.490196078431374,68.55,-43.4,-102.1
970.55,-124.49019607843137,95.49019607843137,12.0,-54.81,53.68,39.19
970.6,-32.470588235294116,-219.49019607843138,-279.0,9.44,30.3,28.55
970.65,-54.98039215686274,117.0,-187.0,-39.94,55.12,39.12
970.7,88.01960784313725,-78.0,-218.0,-27.9,44.62,30.33
970.75,152.01960784313727,133.0,-172.0,-20.62,27.19,24.94
970.8,-283.4901960784314,19.0,-141.0,-38.75,6.4,-3.15
970.85,-93.49019607843137,-62.0,-33.0,28.41,-41.16,-33.29
970.9,113.50980392156863,35.0,-156.0,215.41,-68.07,-89.01
970.95,-156.49019607843138,-312.5098039215686,-264.0,-32.03,152.56,18.47
971.0,-6.980392156862745,194.01960784313727,304.0,-40.57,214.54,69.25
971.05,-48.470588235294116,172.50980392156862,55.509803921568626,-7.35,210.62,83.11
971.1,-260.98039215686276,-225.0,209.50980392156862,-26.95,283.39,171.49
971.15,-70.98039215686275,-45.0,270.5098039215686,-19.39,-313.84,156.79
971.2,-13.490196078431373,84.0,-95.0,120.81,-194.49,68.66
971.25,145.50980392156862,-84.50980392156863,123.49019607843137,117.2,-85.11,82.31
971.3,193.50980392156862,303.5098039215686,-165.01960784313727,28.41,-173.31,89.62
971.35,-27.50980392156863,-170.49019607843138,-69.52941176470588,-196.84,-243.24,246.84
971.4,-124.05882352941177,-290.0,104.0,70.83,270.82,18.4
971.45,-238.0392156862745,-214.50980392156862,-172.0,-125.09,-270.47,-25.73
971.5,290.4901960784314,242.49019607843138,-132.98039215686273,-206.99,264.24,15.74
971.55,-266.5098039215686,-84.50980392156863,43.0,-67.97,194.31,106.18
971.6,292.47058823529414,-219.49019607843138,0.49019607843137253,-68.81,-62.02,-35.35
971.65,106.0,62.490196078431374,-110.0,-4.1,9.83,5.76
971.7,140.98039215686273,-154.49019607843138,-18.0,-18.73,26.14,11.15
971.75,131.49019607843138,188.50980392156862,273.0,-13.62,18.82,36.67
971.8,194.49019607843138,286.5098039215686,-153.50980392156862,13.04,-12.28,48.29
971.85,-59.509803921568626,303.5098039215686,304.0,1.25,4.93,50.21
971.9,-250.50980392156862,-192.0,304.0,-11.9,36.46,34.92
971.95,249.0,-241.0,273.0,-20.06,72.76,-0.39
972.0,-282.5098039215686,286.5098039215686,320.0,-28.63,47.03,-30.14
972.05,-43.509803921568626,-290.0,-30.50980392156863,29.81,-60.72,-82.88
972.1,-186.50980392156862,221.50980392156862,-153.50980392156862,57.95,-74.83,-59.54
972.15,115.49019607843137,286.5098039215686,0.49019607843137253,139.36,-183.89,-92.68
972.2,-59.509803921568626,-143.0,304.0,209.29,-318.36,-143.36
972.25,-202.50980392156862,84.0,43.0,282.12,203.09,-204.33
972.3,19.49019607843137,166.0,147.50980392156862,242.54,143.56,-180.5
972.35,12.980392156862745,291.4901960784314,-129.49019607843138,-116.52,-151.51,142.02
972.4,203.98039215686273,-73.01960784313725,198.0392156862745,-92.44,-181.45,70.55
972.45,-307.11764705882354,-171.4313725490196,116.88235294117646,-201.46,267.42,-57.54
972.5,94.52941176470588,-155.01960784313727,0.49019607843137253,140.69,180.27,-210.18
972.55,-82.01960784313725,62.490196078431374,273.0,-138.67,-97.58,-177.87
972.6,-247.9607843137255,111.49019607843137,-215.50980392156862,-50.79,-221.02,-139.76
972.65,-108.49019607843137,-214.50980392156862,270.5098039215686,6.11,-243.21,-101.92
972.7,190.52941176470588,-29.0,-64.0,-12.88,-135.94,-82.15
972.75,47.529411764705884,-62.0,-64.0,-13.83,-26.04,18.26
972.8,-79.47058823529412,-111.0,-144.49019607843138,-65.42,5.77,65.54
972.85,-54.98039215686274,35.0,313.01960784313724,15.0,-10.32,-12.32
972.9,256.5098039215686,313.0,-233.0,11.92,13.01,-25.62
972.95,320.5098039215686,35.0,-49.0,0.23,3.49,-36.75
973.0,97.50980392156863,-29.0,-233.0,9.02,3.25,-31.36
973.05,-220.49019607843138,52.0,-79.0,12.2,-7.14,-18.8
973.1,-315.4901960784314,-13.0,-110.0,27.95,-8.05,-13.48
973.15,-124.49019607843137,-78.0,-156.0,1.32,8.67,9.23
973.2,295.01960784313724,-225.0,-49.0,-10.92,5.63,-3.99
973.25,216.01960784313727,3.0,-156.0,23.05,-10.92,-5.25
973.3,136.01960784313727,3.0,-95.0,17.21,-10.18,-3.47
973.35,136.01960784313727,-111.0,12.0,16.12,-18.34,-9.77
973.4,72.01960784313725,-127.0,-33.0,3.07,-19.21,-13.06
973.45,-22.980392156862745,-45.0,150.0,2.96,-11.27,-6.16
973.5,-54.98039215686274,-143.0,-172.0,62.78,132.68,-57.23
973.55,83.05882352941177,-89.49019607843137,-258.01960784313724,-28.7,19.28,-94.75
973.6,-165.98039215686273,24.980392156862745,239.50980392156862,17.42,-56.91,-60.34
973.65,295.01960784313724,276.01960784313724,-218.0,-41.44,62.43,85.84
973.7,-229.98039215686273,-121.49019607843137,-138.50980392156862,-16.77,35.8,2.65
973.75,200.01960784313727,248.0,-233.0,-27.3,60.33,50.28
973.8,-149.98039215686273,-192.0,166.0,-3.78,32.93,38.59
973.85,-220.49019607843138,133.0,193.50980392156862,-27.06,42.38,41.99
973.9,120.01960784313725,-45.0,43.0,-21.49,-9.73,0.69
973.95,-29.49019607843137,117.0,-264.0,-5.81,-38.43,-15.61
974.0,256.5098039215686,101.0,239.50980392156862,-321.33,-130.06,-92.65
974.05,208.50980392156862,-165.50980392156862,116.50980392156863,-126.98,160.01,-156.59
974.1,-6.980392156862745,-127.0,-129.49019607843138,-40.22,253.32,69.36
974.15,126.52941176470588,-105.49019607843137,-167.47058823529412,47.52,230.71,96.76
974.2,-165.98039215686273,52.0,-187.0,-30.17,304.81,185.1
974.25,216.01960784313727,52.0,301.5098039215686,33.97,-295.78,119.9
974.3,177.50980392156862,297.0,-49.0,123.26,-141.78,83.92
974.35,-93.49019607843137,-116.50980392156863,61.490196078431374,69.95,-71.81,79.16
974.4,-4.0,-187.49019607843138,-89.01960784313725,-89.08,-259.03,64.42
974.45,-3.019607843137255,270.5098039215686,264.98039215686276,-119.56,-303.02,117.48
974.5,174.9607843137255,254.50980392156862,-233.0,-39.13,278.14,52.21
974.55,-286.03921568627453,193.49019607843138,-203.0,-118.41,-293.15,-4.27
974.6,297.0,-236.01960784313727,-144.49019607843138,-78.47,179.4,89.76
974.65,76.98039215686275,177.49019607843138,-276.5098039215686,-78.16,43.81,55.22
974.7,118.47058823529412,209.49019607843138,289.0,-29.16,-36.75,-15.16
974.75,281.0,-154.49019607843138,-223.52941176470588,-26.11,79.97,1.81
974.8,-34.01960784313726,123.50980392156863,-304.01960784313724,-37.14,75.84,31.56
974.85,-305.01960784313724,-111.0,61.490196078431374,-6.3,-7.14,18.92
974.9,19.49019607843137,221.50980392156862,-123.50980392156863,4.99,-31.32,31.94
974.95,-218.50980392156862,270.5098039215686,-246.50980392156862,11.75,-17.53,59.31
975.0,-154.50980392156862,254.50980392156862,196.0,-5.08,21.13,37.75
975.05,122.0,-160.0,196.0,-17.64,76.68,19.8
975.1,-234.50980392156862,-241.0,273.0,-25.8,69.47,-6.69
975.15,313.0,254.50980392156862,-246.50980392156862,6.01,-23.8,-72.0
975.2,-202.50980392156862,205.50980392156862,-76.50980392156863,21.58,-50.47,-57.37
975.25,67.49019607843137,90.50980392156863,46.490196078431374,41.6,-46.51,-38.64
975.3,131.49019607843138,172.50980392156862,46.490196078431374,135.75,-174.09,-93.77
975.35,-266.5098039215686,-225.0,181.0,209.36,-320.42,-140.11
975.4,-186.50980392156862,-62.0,-79.0,271.13,203.06,-186.97
975.45,83.49019607843137,297.0,239.50980392156862,255.03,164.73,-139.69
975.5,-18.019607843137255,209.49019607843138,206.01960784313727,-60.41,-313.91,91.06
975.55,-183.52941176470588,193.49019607843138,217.52941176470588,-15.58,-126.64,18.92
975.6,240.94117647058823,286.5098039215686,87.96078431372548,-237.37,230.57,88.43
975.65,-93.49019607843137,84.0,307.4901960784314,-32.2,82.87,-67.17
975.7,-107.50980392156863,-133.50980392156862,-230.50980392156862,42.37,-254.31,-176.65
975.75,-54.98039215686274,144.49019607843138,-227.01960784313727,-176.16,-64.82,-192.47
975.8,206.52941176470588,117.0,-33.0,-97.13,-147.03,-110.64
975.85,63.529411764705884,-62.0,-252.49019607843138,20.64,-201.77,-51.35
975.9,-0.47058823529411764,-198.50980392156862,282.01960784313724,-2.59,-90.51,-2.77
975.95,276.03921568627453,150.0,282.01960784313724,-44.17,-20.58,20.6
976.0,-181.98039215686273,52.0,-190.49019607843138,-8.86,2.76,-17.26
976.05,-93.49019607843137,117.0,273.0,17.87,6.36,-34.37
976.1,-163.0,68.0,-79.0,-10.29,8.46,-25.27
976.15,65.50980392156863,-13.0,-64.0,5.83,-1.54,-24.19
976.2,-172.49019607843138,68.0,-64.0,-3.75,6.89,-10.68
976.25,-108.49019607843137,-94.0,-156.0,8.25,1.18,-13.2
976.3,-188.49019607843138,3.0,-64.0,14.97,-28.94,-13.09
976.35,-45.490196078431374,-111.0,-295.0,18.82,-33.11,-14.14
976.4,88.01960784313725,52.0,-218.0,-5.64,3.67,4.29
976.45,41.01960784313726,-176.0,212.0,26.97,-16.94,-1.19
976.5,104.01960784313725,19.0,-141.0,1.28,-16.13,0.27
976.55,-22.980392156862745,-111.0,-49.0,-4.31,-3.53,8.35
976.6,-197.98039215686273,-45.0,43.0,96.66,-90.89,-36.16
976.65,-70.98039215686275,19.0,-18.0,-194.99,144.82,270.4
976.7,-75.94117647058823,-94.47058823529412,-54.529411764705884,94.42,-57.19,-31.5
976.75,240.50980392156862,-111.52941176470588,36.01960784313726,65.37,-32.37,-73.64
976.8,-95.47058823529412,-209.0,150.0,-41.51,64.39,52.8
976.85,25.019607843137255,117.0,286.5098039215686,1.28,28.03,21.62
976.9,295.01960784313724,-62.0,-280.0,-42.04,82.21,50.84
976.95,-117.98039215686275,-78.0,27.0,15.11,10.07,11.85
977.0,-93.49019607843137,150.0,-310.0,-31.33,34.26,15.63
977.05,104.01960784313725,35.0,43.0,-5.15,-13.26,-29.72
977.1,2.5098039215686274,199.0,-203.0,52.45,-62.51,-36.05
977.15,161.50980392156862,-45.0,-233.0,281.46,-88.83,-111.27
977.2,113.50980392156863,-214.50980392156862,-310.0,-37.0,166.8,-47.64
977.25,-117.98039215686275,129.01960784313727,38.470588235294116,-18.76,201.77,51.33
977.3,-143.47058823529412,183.0,67.01960784313725,-58.98,250.8,143.7
977.35,142.52941176470588,-187.49019607843138,101.50980392156863,-14.11,272.57,170.68
977.4,295.01960784313724,150.0,-36.490196078431374,13.92,-309.39,134.7
977.45,49.509803921568626,-263.5098039215686,150.0,67.08,-135.09,69.22
977.5,-61.490196078431374,199.0,46.490196078431374,-48.62,-86.72,92.95
977.55,-84.0,-285.4901960784314,-54.529411764705884,-82.29,-313.35,56.41
977.6,28.980392156862745,-170.49019607843138,-146.52941176470588,61.9,326.61,164.03
977.65,-260.54901960784315,-214.50980392156862,-144.49019607843138,-37.91,306.87,59.07
977.7,134.47058823529412,-2.5098039215686274,-36.490196078431374,-182.21,-254.37,32.22
977.75,-114.01960784313725,-204.01960784313727,-98.49019607843137,-144.9,267.74,138.59
977.8,203.98039215686273,199.0,-276.5098039215686,-69.34,52.95,120.32
977.85,-72.52941176470588,58.509803921568626,181.0,-43.26,-69.54,-55.37
977.9,-36.0,-23.49019607843137,-273.01960784313724,-16.8,28.9,-7.07
977.95,60.98039215686274,-154.49019607843138,30.49019607843137,-41.58,65.2,3.56
978.0,115.49019607843137,-29.0,15.490196078431373,24.91,-55.44,6.25
978.05,4.490196078431373,-258.0,-292.5098039215686,7.69,-59.11,34.6
978.1,313.0,-127.0,-199.50980392156862,12.8,-14.87,47.48
978.15,-91.50980392156863,221.50980392156862,212.0,-2.63,42.76,29.35
978.2,-282.5098039215686,-176.0,320.0,-23.31,93.58,29.88
978.25,-91.50980392156863,254.50980392156862,-307.5098039215686,-37.73,44.37,-11.41
978.3,-59.509803921568626,188.50980392156862,30.49019607843137,-16.59,-21.38,-67.27
978.35,-154.50980392156862,9.509803921568627,-122.50980392156863,-3.61,16.41,0.3
978.4,-209.01960784313727,-187.49019607843138,0.49019607843137253,7.51,-1.96,-0.84
978.45,-139.50980392156862,237.50980392156862,-169.50980392156862,81.43,-103.21,-55.44
978.5,-186.50980392156862,221.50980392156862,320.0,175.37,-249.13,-117.22
978.55,-313.5098039215686,-225.0,43.0,224.13,307.08,-185.85
978.6,19.49019607843137,-29.0,27.0,298.36,204.18,-181.41
978.65,-305.01960784313724,-182.50980392156862,24.50980392156863,217.58,164.56,-88.45
978.7,299.98039215686276,-67.50980392156863,-52.490196078431374,-140.6,-220.5,188.43
978.75,267.98039215686276,193.49019607843138,-228.47058823529412,-218.26,-171.02,75.13
978.8,100.92156862745098,-100.92156862745098,-159.07843137254903,-142.77,265.46,-49.18
978.85,-184.9607843137255,-133.50980392156862,-273.01960784313724,-8.26,289.26,-122.89
978.9,-59.509803921568626,-35.509803921568626,89.0,-133.46,-113.92,-132.86
978.95,149.0392156862745,-2.5098039215686274,-18.0,-6.44,-251.33,-154.91
979.0,-45.490196078431374,-263.5098039215686,-190.49019607843138,-49.49,-214.09,-97.34
979.05,269.52941176470586,215.0,316.5098039215686,13.78,-179.34,-101.68
979.1,317.52941176470586,-296.5098039215686,224.50980392156862,-49.53,-34.68,11.71
979.15,63.529411764705884,-258.0,252.01960784313727,-21.14,-5.21,44.82
979.2,-292.98039215686276,101.0,-144.49019607843138,-35.63,28.38,24.63
979.25,2.5098039215686274,68.0,212.0,17.94,21.48,-38.12
979.3,-243.0,19.0,58.0,-26.95,28.34,-33.57
979.35,-156.49019607843138,19.0,-33.0,7.58,-0.52,-26.29
979.4,-204.49019607843138,150.0,-18.0,9.82,-4.69,9.3
979.45,-220.49019607843138,-111.0,-141.0,5.41,21.1,-4.17
979.5,311.01960784313724,35.0,-110.0,9.37,4.96,-10.29
979.55,-108.49019607843137,-94.0,-295.0,12.27,-17.71,4.05
979.6,120.01960784313725,-13.0,-264.0,-7.7,10.0,-0.11
979.65,-229.98039215686273,35.0,166.0,16.05,-7.21,-11.2
979.7,25.019607843137255,35.0,-110.0,-18.73,11.23,2.3
979.75,-54.98039215686274,-78.0,-33.0,22.7,-24.36,-16.31
979.8,152.01960784313727,35.0,-126.0,3.24,-31.78,-24.01
979.85,120.01960784313725,-45.0,-80.0,8.11,-55.23,-32.66
979.9,-22.980392156862745,3.0,104.0,30.23,58.13,-83.69
979.95,-263.96078431372547,-176.0,113.01960784313725,-56.0,32.23,-62.79
980.0,190.52941176470588,-247.50980392156862,184.49019607843138,104.29,-69.4,-76.79
980.05,-107.50980392156863,63.01960784313726,-310.0,-62.93,102.02,158.36
980.1,276.03921568627453,63.01960784313726,-15.509803921568627,-22.61,54.17,9.12
980.15,-133.98039215686273,95.49019607843137,193.50980392156862,-18.1,50.57,37.05
980.2,-292.98039215686276,-127.0,-141.0,6.99,27.75,20.85
980.25,216.01960784313727,183.0,316.5098039215686,6.88,19.42,22.39
980.3,263.01960784313724,35.0,-249.0,-30.56,27.64,25.15
980.35,279.01960784313724,3.0,-3.0,-2.66,-8.4,-18.24
980.4,-29.49019607843137,101.0,-172.0,19.48,-57.43,-33.5
980.45,224.50980392156862,101.0,86.50980392156863,-225.29,-163.83,-138.18
980.5,161.50980392156862,183.0,-64.0,65.54,126.69,6.92
980.55,-207.47058823529412,129.01960784313727,-12.019607843137255,-114.91,252.8,59.94
980.6,117.03921568627452,41.509803921568626,-182.47058823529412,34.43,209.64,102.92
980.65,-165.98039215686273,-94.0,-298.4901960784314,-70.11,295.92,182.13
980.7,279.01960784313724,101.0,-175.49019607843138,-4.31,-268.51,107.4
980.75,311.01960784313724,-165.50980392156862,89.0,43.32,-124.63,80.7
980.8,-124.49019607843137,215.0,292.4901960784314,57.88,-97.96,84.62
980.85,-84.0,25.50980392156863,157.98039215686273,-73.4,-280.2,56.48
980.9,-161.01960784313727,-268.4901960784314,172.98039215686273,-20.55,302.6,109.85
980.95,-117.54901960784314,-198.50980392156862,-310.0,-277.13,-243.14,90.43
981.0,-263.52941176470586,160.49019607843138,159.01960784313727,-272.97,-312.05,116.22
981.05,11.0,138.98039215686273,-270.98039215686276,-47.78,201.98,188.43
981.1,197.47058823529412,319.5098039215686,-233.0,-20.16,45.32,83.64
981.15,60.98039215686274,52.0,150.0,13.5,-14.24,13.11
981.2,306.4901960784314,286.5098039215686,-230.50980392156862,0.09,36.22,-23.38
981.25,242.49019607843138,270.5098039215686,-122.50980392156863,-11.59,6.26,-13.34
981.3,-320.01960784313724,237.50980392156862,-169.50980392156862,-8.37,-17.46,3.31
981.35,-298.5098039215686,172.50980392156862,-199.50980392156862,-0.67,3.11,54.48
981.4,-186.50980392156862,286.5098039215686,227.0,-25.97,33.28,46.85
981.45,249.0,-78.0,289.0,-12.71,98.2,27.92
981.5,-139.50980392156862,303.5098039215686,-292.5098039215686,-62.37,38.35,-0.42
981.55,99.49019607843137,-290.0,-46.509803921568626,5.76,-58.17,-65.7
981.6,297.0,-252.49019607843138,166.0,-4.52,9.23,1.88
981.65,-146.01960784313727,-154.49019607843138,138.49019607843138,-25.9,18.3,7.93
981.7,-27.50980392156863,237.50980392156862,0.49019607843137253,-8.86,-8.99,-31.08
981.75,-75.50980392156863,221.50980392156862,-76.50980392156863,-8.82,3.21,-28.25
981.8,-11.509803921568627,156.50980392156862,-30.50980392156863,-2.59,-0.56,-12.15
981.85,147.49019607843138,188.50980392156862,-61.509803921568626,1.46,-24.64,5.1
981.9,83.49019607843137,237.50980392156862,-92.50980392156863,10.0,-24.46,6.74
981.95,67.49019607843137,205.50980392156862,-153.50980392156862,7.76,-12.56,1.25
982.0,35.490196078431374,286.5098039215686,-169.50980392156862,9.51,0.76,-3.29
982.05,99.49019607843137,270.5098039215686,-230.50980392156862,44.23,-30.66,-32.52
982.1,-75.50980392156863,254.50980392156862,304.0,149.61,-134.68,-95.34
982.15,-202.50980392156862,270.5098039215686,-64.0,222.13,-277.62,-163.38
982.2,-154.50980392156862,35.0,-172.0,208.31,240.12,-188.65
982.25,163.49019607843138,313.0,-310.0,284.61,164.8,-185.12
982.3,-161.01960784313727,-67.50980392156863,221.01960784313727,88.12,232.91,-17.22
982.35,-152.52941176470588,-204.01960784313727,278.52941176470586,264.34,-125.28,-20.51
982.4,73.45098039215686,-231.50980392156862,58.0,-176.33,-327.6,42.62
982.45,-306.0,-209.0,-238.52941176470588,49.79,178.77,-118.34
982.5,27.0,79.49019607843137,104.0,-66.19,-195.75,-165.94
982.55,-38.98039215686274,215.0,-246.50980392156862,-18.45,-196.24,-210.77
982.6,120.01960784313725,-231.50980392156862,-141.0,-48.58,-155.43,-128.94
982.65,206.52941176470588,-160.0,9.509803921568627,4.57,-129.71,-105.25
982.7,206.52941176470588,-94.0,255.50980392156862,-46.52,6.57,33.06
982.75,86.03921568627452,-258.0,-40.98039215686274,-0.21,-16.03,29.42
982.8,-133.98039215686273,-312.5098039215686,52.01960784313726,-6.9,-24.95,27.18
982.85,65.50980392156863,-29.0,-18.0,15.7,-13.26,-27.02
982.9,-259.0,35.0,-18.0,10.03,-3.04,-36.68
982.95,-61.490196078431374,35.0,12.0,-14.6,-9.38,-44.1
983.0,49.509803921568626,-29.0,-110.0,-9.14,-11.65,-21.42
983.05,184.01960784313727,19.0,-126.0,43.11,-34.65,-25.24
983.1,-283.4901960784314,52.0,-203.0,2.02,-11.37,-30.28
983.15,-204.49019607843138,-29.0,-187.0,20.08,-23.45,-15.09
983.2,200.01960784313727,-192.0,-110.0,-13.16,-5.04,5.06
983.25,72.01960784313725,-176.0,58.0,6.99,-18.02,-12.74
983.3,104.01960784313725,3.0,-80.0,19.06,-29.05,-19.57
983.35,152.01960784313727,-78.0,-203.0,12.87,-6.05,-5.95
983.4,216.01960784313727,-13.0,-33.0,7.34,-8.57,-2.8
983.45,231.01960784313727,-192.0,-126.0,20.71,-19.46,-11.2
983.5,216.01960784313727,-62.0,-33.0,-11.2,-7.35,-3.19
983.55,104.01960784313725,-290.0,-3.0,12.69,-45.39,-31.15
983.6,279.01960784313724,-29.0,-203.0,56.72,-15.01,5.62
983.65,295.01960784313724,-241.0,58.0,7.76,144.65,63.83
983.7,267.54901960784315,-138.49019607843138,200.49019607843138,-32.31,23.09,-12.08
983.75,224.50980392156862,-263.5098039215686,-28.470588235294116,36.49,30.51,31.28
983.8,-124.49019607843137,-214.50980392156862,236.01960784313727,-11.45,123.51,114.02
983.85,-181.98039215686273,-143.0,132.50980392156862,63.16,143.74,151.75
983.9,-117.98039215686275,-165.50980392156862,-98.49019607843137,142.72,146.33,139.78
983.95,-54.98039215686274,-247.50980392156862,132.50980392156862,98.69,139.99,128.75
984.0,152.01960784313727,166.0,209.50980392156862,101.17,124.14,109.96
984.05,263.01960784313724,183.0,209.50980392156862,64.42,117.7,91.3
984.1,-315.4901960784314,133.0,193.50980392156862,55.57,99.74,74.36
984.15,-172.49019607843138,199.0,163.50980392156862,63.83,75.17,56.9
984.2,18.50980392156863,248.0,55.509803921568626,52.63,64.78,55.25
984.25,97.50980392156863,166.0,24.50980392156863,56.23,56.76,50.25
984.3,224.50980392156862,183.0,-83.49019607843137,59.1,43.92,37.82
984.35,320.5098039215686,133.0,-113.49019607843137,56.48,47.17,31.63
984.4,-243.0,19.0,-160.49019607843138,53.22,47.98,20.85
984.45,-195.0,35.0,-221.49019607843138,57.39,43.53,10.28
984.5,-131.0,-13.0,-190.49019607843138,53.5,36.32,13.46
984.55,256.5098039215686,-13.0,116.50980392156863,44.68,23.65,-1.79
984.6,-100.0,3.0,-252.49019607843138,40.27,32.79,-18.34
984.65,-275.0,35.0,-67.49019607843137,17.0,26.8,4.61
984.7,-52.0,-94.0,-236.49019607843138,42.93,21.76,0.62
984.75,-147.0,-94.0,-236.49019607843138,32.26,20.75,-3.33
984.8,-20.0,-143.0,-283.4901960784314,8.67,15.71,-0.95
984.85,11.0,-143.0,-283.4901960784314,-9.07,10.67,15.81
984.9,74.0,-192.0,-313.4901960784314,2.51,8.88,10.17
984.95,122.0,-127.0,298.01960784313724,3.77,7.69,14.41
985.0,42.0,-160.0,267.01960784313724,-5.46,8.08,13.78
985.05,58.0,-225.0,313.01960784313724,-3.36,5.7,22.35
985.1,-4.0,-176.0,267.01960784313724,7.48,-4.79,15.25
985.15,11.0,-127.0,267.01960784313724,28.9,-11.3,8.18
985.2,27.0,-209.0,236.01960784313727,28.72,-1.01,3.49
985.25,27.0,-241.0,236.01960784313727,34.25,0.73,6.78
985.3,138.0,254.50980392156862,236.01960784313727,14.41,4.33,-1.82
985.35,27.0,-307.0,-298.4901960784314,-6.97,3.11,-1.68
985.4,-20.0,-274.0,-283.4901960784314,-28.53,2.79,23.3
985.45,27.0,-290.0,282.01960784313724,-18.41,5.56,23.72
985.5,-36.0,-258.0,236.01960784313727,1.25,3.88,-10.08
985.55,27.0,-241.0,298.01960784313724,-0.18,1.04,20.92
985.6,27.0,-258.0,282.01960784313724,10.0,-2.45,-3.08
985.65,-36.0,-241.0,-237.49019607843138,-7.98,-0.45,20.67
985.7,27.0,-258.0,313.01960784313724,0.37,1.22,9.61
985.75,27.0,-192.0,-313.4901960784314,-14.0,6.47,9.37
985.8,-20.0,-258.0,313.01960784313724,-10.75,3.98,6.5
985.85,249.0,-192.0,282.01960784313724,-13.76,3.98,14.62
985.9,27.0,-225.0,-298.4901960784314,-6.16,-0.28,11.96
985.95,58.0,-176.0,298.01960784313724,-9.94,1.81,17.42
986.0,58.0,-176.0,-283.4901960784314,-4.34,0.52,20.99
986.05,42.0,-127.0,267.01960784313724,-18.87,1.18,27.32
986.1,42.0,-160.0,298.01960784313724,-5.08,3.56,28.55
986.15,27.0,-160.0,252.01960784313727,-13.86,2.16,14.13
986.2,90.0,-176.0,313.01960784313724,-3.57,0.45,1.7
986.25,27.0,-127.0,267.01960784313724,-17.89,-0.52,20.22
986.3,-52.0,-209.0,-313.4901960784314,2.26,-14.59,23.75
986.35,-52.0,-78.0,221.01960784313727,-31.71,22.32,15.11
986.4,42.0,-143.0,221.01960784313727,-16.73,-7.03,26.24
986.45,-52.0,-78.0,129.01960784313727,11.68,-9.9,22.77
986.5,27.0,3.0,252.01960784313727,3.52,-4.69,9.44
986.55,-20.0,-127.0,282.01960784313724,27.99,-10.29,18.85
986.6,-36.0,-62.0,298.01960784313724,-27.41,30.79,39.08
986.65,-100.0,-241.0,313.01960784313724,-28.21,52.95,82.8
986.7,-68.0,-192.0,-313.4901960784314,14.83,7.73,40.69
986.75,186.0,-94.0,190.01960784313727,14.48,-9.31,1.56
986.8,42.0,-13.0,267.01960784313724,-84.88,1.6,-36.51
986.85,90.0,-143.0,-298.4901960784314,-5.81,-25.06,-24.5
986.9,265.0,-111.0,-298.4901960784314,61.8,0.38,-41.83
986.95,-36.0,3.0,190.01960784313727,35.93,-8.92,-1.96
987.0,-36.0,-127.0,298.01960784313724,32.92,-8.26,-10.57
987.05,-179.0,-94.0,313.01960784313724,75.87,-40.42,51.23
987.1,138.0,3.0,-313.4901960784314,31.24,-4.58,17.35
987.15,-147.0,-258.0,267.01960784313724,-6.3,6.5,-25.97
987.2,-36.0,-290.0,-313.4901960784314,-19.01,16.02,-23.59
987.25,11.0,-176.0,-283.4901960784314,-46.76,17.63,-23.14
987.3,42.0,-209.0,282.01960784313724,-55.02,7.52,-61.22
987.35,27.0,-225.0,298.01960784313724,13.08,-0.91,-64.02
987.4,106.0,101.0,-237.49019607843138,11.22,-0.52,7.83
987.45,-36.0,-45.0,313.01960784313724,-27.86,30.37,27.11
987.5,-68.0,-192.0,298.01960784313724,-50.37,40.1,79.05
987.55,-52.0,-78.0,236.01960784313727,10.03,-7.24,69.18
987.6,122.0,-29.0,298.01960784313724,31.45,3.25,89.73
987.65,-68.0,35.0,-313.4901960784314,24.73,9.83,61.83
987.7,42.0,-45.0,206.01960784313727,-2.17,0.94,-1.82
987.75,122.0,-241.0,-298.4901960784314,-5.92,-8.01,-67.62
987.8,74.0,-78.0,252.01960784313727,-31.75,-17.85,-33.08
987.85,27.0,-192.0,-298.4901960784314,7.58,10.81,32.33
987.9,-20.0,19.0,267.01960784313724,7.06,19.1,68.8
987.95,-20.0,-94.0,190.01960784313727,0.27,6.71,30.19
988.0,27.0,-94.0,282.01960784313724,-8.82,7.8,-11.27
988.05,27.0,-160.0,267.01960784313724,-16.38,3.98,-58.31
988.1,74.0,-94.0,282.01960784313724,9.89,-7.1,-11.94
988.15,42.0,-160.0,252.01960784313727,-0.04,0.69,9.72
988.2,42.0,-62.0,-313.4901960784314,-3.29,15.04,39.71
988.25,27.0,-62.0,267.01960784313724,7.2,25.02,37.4
988.3,-20.0,-111.0,282.01960784313724,5.59,-3.01,-23.59
988.35,186.0,-160.0,267.01960784313724,-17.19,14.83,-53.24
988.4,58.0,-62.0,282.01960784313724,18.92,-24.92,-40.67
988.45,138.0,-143.0,-283.4901960784314,15.67,-20.68,-13.48
988.5,58.0,-94.0,298.01960784313724,5.06,-3.36,8.49
988.55,58.0,-78.0,313.01960784313724,3.1,14.73,41.88
988.6,74.0,-45.0,252.01960784313727,3.84,9.86,29.63
988.65,106.0,-13.0,267.01960784313724,-4.41,5.91,-4.83
988.7,74.0,-111.0,282.01960784313724,1.49,5.49,-37.49
988.75,138.0,-78.0,313.01960784313724,20.46,-19.04,-26.43
988.8,138.0,-176.0,298.01960784313724,20.53,-27.82,-13.62
988.85,58.0,-78.0,282.01960784313724,12.8,-23.66,-4.03
988.9,90.0,-78.0,252.01960784313727,7.83,-15.85,-2.49
988.95,42.0,-127.0,298.01960784313724,-1.61,-3.22,-4.83
989.0,42.0,-176.0,236.01960784313727,-1.19,-3.71,-7.14
989.05,27.0,-176.0,282.01960784313724,-7.35,-4.41,-3.47
989.1,27.0,-127.0,267.01960784313724,0.0,-5.42,-2.21
989.15,27.0,-78.0,282.01960784313724,-20.65,29.92,19.69
989.2,-20.0,-143.0,252.01960784313727,-17.36,48.12,38.21
989.25,-52.0,-160.0,190.01960784313727,-30.87,19.42,1.6
989.3,122.0,-143.0,-267.4901960784314,-24.61,13.71,-12.04
989.35,90.0,-29.0,313.01960784313724,-11.55,-15.12,-21.49
989.4,106.0,-94.0,298.01960784313724,12.87,-24.25,-5.67
989.45,58.0,-45.0,282.01960784313724,-10.29,-5.28,9.54
989.5,42.0,-62.0,282.01960784313724,4.29,-14.21,2.86
989.55,90.0,3.0,252.01960784313727,0.02,-11.27,1.32
989.6,58.0,-94.0,221.01960784313727,16.93,-22.47,-7.46
989.65,58.0,-62.0,236.01960784313727,15.88,-20.05,-4.69
989.7,27.0,-78.0,298.01960784313724,16.44,-20.44,-5.95
989.75,11.0,-62.0,282.01960784313724,2.05,-0.56,-31.22
989.8,-20.0,-62.0,267.01960784313724,-7.39,-8.4,-2.87
989.85,58.0,270.5098039215686,-283.4901960784314,4.29,33.24,56.83
989.9,27.0,-78.0,-313.4901960784314,1.49,28.17,65.79
989.95,-20.0,-127.0,221.01960784313727,39.57,18.3,48.11
990.0,106.0,166.0,313.01960784313724,-17.89,3.63,0.51
990.05,74.0,-176.0,236.01960784313727,-13.44,4.54,-36.4
990.1,170.0,-94.0,221.01960784313727,-10.99,-12.21,-56.35
990.15,90.0,-176.0,252.01960784313727,11.57,18.89,24.91
990.2,-68.0,-127.0,144.01960784313727,18.64,-11.93,28.58
990.25,138.0,-258.0,298.01960784313724,-9.45,3.18,-11.03
990.3,42.0,-13.0,-298.4901960784314,2.16,-13.51,-46.17
990.35,90.0,-78.0,267.01960784313724,15.67,-8.78,-5.11
990.4,-4.0,-225.0,236.01960784313727,-11.83,15.53,27.53
990.45,27.0,-176.0,282.01960784313724,-6.79,6.01,28.58
990.5,42.0,-62.0,313.01960784313724,11.08,-12.28,-19.39
990.55,106.0,-45.0,252.01960784313727,-19.81,8.99,-27.62
990.6,58.0,-111.0,221.01960784313727,1.63,-11.27,-29.93
990.65,90.0,-192.0,313.01960784313724,-3.82,-15.05,-42.74
990.7,27.0,-111.0,267.01960784313724,-17.36,-15.5,-62.83
990.75,58.0,-111.0,221.01960784313727,-21.32,6.64,19.1
990.8,-4.0,-127.0,175.01960784313727,20.74,-8.92,-11.55
990.85,58.0,-29.0,267.01960784313724,2.89,7.59,4.5
990.9,-147.0,-209.0,298.01960784313724,17.56,-0.52,13.04
990.95,-4.0,-78.0,282.01960784313724,-8.33,27.85,94.24
991.0,106.0,166.0,313.01960784313724,-17.89,3.63,0.51
991.05,74.0,-176.0,236.01960784313727,-13.44,4.54,-36.4
991.1,170.0,-94.0,221.01960784313727,-10.99,-12.21,-56.35
991.15,90.0,-176.0,252.01960784313727,11.57,18.89,24.91
991.2,-68.0,-127.0,144.01960784313727,18.64,-11.93,28.58
991.25,138.0,-258.0,298.01960784313724,-9.45,3.18,-11.03
991.3,42.0,-13.0,-298.4901960784314,2.16,-13.51,-46.17
991.35,90.0,-78.0,267.01960784313724,15.67,-8.78,-5.11
991.4,-4.0,-225.0,236.01960784313727,-11.83,15.53,27.53
991.45,27.0,-176.0,282.01960784313724,-6.79,6.01,28.58
991.5,42.0,-62.0,313.01960784313724,11.08,-12.28,-19.39
991.55,106.0,-45.0,252.01960784313727,-19.81,8.99,-27.62
991.6,58.0,-111.0,221.01960784313727,1.63,-11.27,-29.93
991.65,90.0,-192.0,313.01960784313724,-3.82,-15.05,-42.74
991.7,27.0,-111.0,267.01960784313724,-17.36,-15.5,-62.83
991.75,58.0,-111.0,221.01960784313727,-21.32,6.64,19.1
991.8,-4.0,-127.0,175.01960784313727,20.74,-8.92,-11.55
991.85,58.0,-29.0,267.01960784313724,2.89,7.59,4.5
991.9,-147.0,-209.0,298.01960784313724,17.56,-0.52,13.04
991.95,-4.0,-78.0,282.01960784313724,-8.33,27.85,94.24
992.0,11.0,-209.0,313.01960784313724,-40.36,8.32,-39.59
992.05,-20.0,-225.0,-283.4901960784314,-50.96,1.6,-55.27
992.1,-36.0,-78.0,-236.49019607843138,-86.77,-24.22,-59.85
992.15,-20.0,-111.0,-190.49019607843138,-129.75,-38.92,-209.44
992.2,186.0,-290.0,-175.49019607843138,-110.5,-20.19,-123.52
992.25,-163.0,117.0,-190.49019607843138,-106.26,-35.21,-168.49
992.3,193.50980392156862,150.0,-221.49019607843138,-103.95,-52.5,-177.84
992.35,113.50980392156863,-296.5098039215686,-160.49019607843138,-73.01,-69.86,-163.66
992.4,81.50980392156863,-133.50980392156862,-298.4901960784314,-91.74,-69.72,-144.76
992.45,34.509803921568626,-100.50980392156863,236.01960784313727,-108.61,-57.12,-110.81
992.5,65.50980392156863,-51.509803921568626,221.01960784313727,-97.06,-39.16,-89.32
992.55,161.50980392156862,62.490196078431374,236.01960784313727,-68.57,-43.08,-31.22
992.6,320.5098039215686,242.49019607843138,206.01960784313727,-59.05,-52.29,10.63
992.65,-306.0,-18.50980392156863,-175.49019607843138,-37.42,-51.83,43.32
992.7,-290.0,193.49019607843138,-113.49019607843137,-22.86,-24.92,50.04
992.75,-290.0,-51.509803921568626,-52.490196078431374,22.63,6.4,46.57
992.8,-259.0,-263.5098039215686,-221.49019607843138,33.1,11.75,27.39
992.85,-243.0,248.0,9.509803921568627,58.96,-2.03,35.27
992.9,145.50980392156862,160.49019607843138,-21.49019607843137,56.86,-12.49,32.12
992.95,81.50980392156863,-51.509803921568626,193.50980392156862,18.85,-21.14,18.75
993.0,-29.49019607843137,-2.5098039215686274,116.50980392156863,13.99,-22.12,3.94
993.05,-124.49019607843137,-67.50980392156863,101.50980392156863,-12.5,-12.32,-9.8
993.1,-45.490196078431374,-67.50980392156863,86.50980392156863,-2.03,6.43,-22.33
993.15,49.509803921568626,62.490196078431374,9.509803921568627,-10.82,15.18,-31.71
993.2,-13.490196078431373,-2.5098039215686274,70.50980392156863,-27.44,15.08,-41.97
993.25,-45.490196078431374,-67.50980392156863,193.50980392156862,-22.82,16.16,-49.11
993.3,49.509803921568626,-18.50980392156863,147.50980392156862,-34.65,20.05,-54.29
993.35,49.509803921568626,-51.509803921568626,116.50980392156863,-30.94,25.68,-56.14
993.4,-29.49019607843137,-18.50980392156863,132.50980392156862,-39.34,34.12,-63.95
993.45,-77.49019607843137,-100.50980392156863,86.50980392156863,-38.75,36.04,-75.08
993.5,-61.490196078431374,-35.509803921568626,147.50980392156862,-31.15,28.97,-79.63
993.55,-45.490196078431374,-67.50980392156863,86.50980392156863,-4.59,0.8,-87.82
993.6,-77.49019607843137,-165.50980392156862,86.50980392156863,-76.51,-10.15,-73.75
993.65,-315.4901960784314,215.0,178.50980392156862,-47.15,13.71,-51.38
993.7,-77.49019607843137,-84.50980392156863,298.01960784313724,-35.95,25.86,-40.22
993.75,65.50980392156863,84.0,-83.49019607843137,-31.15,21.73,-41.51
993.8,113.50980392156863,199.0,70.50980392156863,-46.17,24.81,-37.91
993.85,-77.49019607843137,215.0,116.50980392156863,-48.44,31.56,-34.3
993.9,-156.49019607843138,281.0,9.509803921568627,-42.6,35.69,-33.64
993.95,-124.49019607843137,199.0,-36.490196078431374,-37.63,30.62,-30.7
994.0,-77.49019607843137,232.0,9.509803921568627,-35.39,20.01,-27.16
994.05,-77.49019607843137,183.0,86.50980392156863,-39.03,11.79,-18.55
994.1,-156.49019607843138,166.0,70.50980392156863,-49.35,9.86,-13.09
994.15,-172.49019607843138,166.0,70.50980392156863,-33.5,23.65,-17.33
994.2,-140.49019607843138,183.0,-52.490196078431374,-36.72,37.9,-18.06
994.25,-124.49019607843137,117.0,-21.49019607843137,-36.23,31.81,7.41
994.3,-188.49019607843138,-214.50980392156862,-6.490196078431373,-73.85,42.83,4.54
994.35,-267.4901960784314,-296.5098039215686,-83.49019607843137,-37.56,21.24,-8.44
994.4,208.50980392156862,-247.50980392156862,116.50980392156863,-3.19,6.68,-13.16
994.45,81.50980392156863,46.490196078431374,70.50980392156863,-30.91,5.56,-2.94
994.5,-204.49019607843138,-182.50980392156862,116.50980392156863,-28.84,6.57,-7.21
994.55,34.509803921568626,-100.50980392156863,132.50980392156862,-25.69,21.17,-21.98
994.6,2.5098039215686274,-149.50980392156862,70.50980392156863,-38.92,32.54,-32.8
994.65,-93.49019607843137,-133.50980392156862,101.50980392156863,-38.01,31.53,-36.09
994.7,-13.490196078431373,-100.50980392156863,86.50980392156863,-36.54,24.21,-35.11
994.75,2.5098039215686274,-165.50980392156862,55.509803921568626,-34.76,18.05,-31.64
994.8,18.50980392156863,-165.50980392156862,39.509803921568626,-24.4,15.18,-27.93
994.85,18.50980392156863,-149.50980392156862,-52.490196078431374,-16.45,10.28,-25.55
994.9,2.5098039215686274,-165.50980392156862,-52.490196078431374,-12.36,4.68,-22.54
994.95,2.5098039215686274,-214.50980392156862,-36.490196078431374,-8.86,-1.15,-22.05
995.0,2.5098039215686274,-247.50980392156862,-21.49019607843137,-7.14,-0.94,-19.32
995.05,-29.49019607843137,-214.50980392156862,-52.490196078431374,-2.98,-0.59,-18.38
995.1,34.509803921568626,-231.50980392156862,-36.490196078431374,1.28,-4.58,-15.86
995.15,49.509803921568626,-263.5098039215686,-21.49019607843137,-6.16,-9.76,-8.16
995.2,18.50980392156863,-231.50980392156862,39.509803921568626,2.09,-6.05,-7.81
995.25,2.5098039215686274,-182.50980392156862,-36.490196078431374,36.42,-8.05,-21.39
995.3,-13.490196078431373,-263.5098039215686,-67.49019607843137,4.29,-23.69,-29.16
995.35,-267.4901960784314,-182.50980392156862,116.50980392156863,-26.43,-31.53,-21.98
995.4,-283.4901960784314,313.0,101.50980392156863,18.64,-11.48,-55.62
995.45,-252.49019607843138,101.0,-6.490196078431373,-53.48,22.81,-118.44
995.5,-220.49019607843138,303.5098039215686,193.50980392156862,-136.29,49.06,-119.32
995.55,-315.4901960784314,-62.0,255.50980392156862,-168.42,44.9,-153.02
995.6,-188.49019607843138,281.0,163.50980392156862,-257.57,69.54,-138.15
995.65,-315.4901960784314,-45.0,224.50980392156862,-115.15,45.0,-94.61
995.7,-267.4901960784314,248.0,163.50980392156862,-101.82,16.51,-69.23
995.75,-236.49019607843138,183.0,239.50980392156862,-73.36,-12.32,-42.67
995.8,-188.49019607843138,183.0,193.50980392156862,-6.34,-28.17,-34.51
995.85,-172.49019607843138,264.0,116.50980392156863,16.44,-33.77,-30.91
995.9,-108.49019607843137,232.0,116.50980392156863,28.97,-42.03,-33.74
995.95,-45.490196078431374,215.0,147.50980392156862,39.71,-36.43,-25.17
996.0,-140.49019607843138,232.0,55.509803921568626,47.27,-30.9,-6.27
996.05,-204.49019607843138,313.0,-6.490196078431373,67.78,-37.48,-1.33
996.1,279.01960784313724,264.0,-21.49019607843137,46.19,18.96,40.17
996.15,-165.98039215686273,-280.5098039215686,-221.49019607843138,96.52,32.82,108.07
996.2,-315.4901960784314,-247.50980392156862,-6.490196078431373,88.36,49.48,118.11
996.25,-267.4901960784314,232.0,255.50980392156862,31.35,70.03,100.51
996.3,231.01960784313727,199.0,286.5098039215686,9.54,69.05,76.15
996.35,231.01960784313727,281.0,-295.0,31.17,49.83,64.07
996.4,295.01960784313724,-280.5098039215686,-233.0,28.37,39.26,64.14
996.45,231.01960784313727,-280.5098039215686,-172.0,37.12,10.98,72.4
996.5,-283.4901960784314,-280.5098039215686,-141.0,52.84,-14.35,82.17
996.55,-283.4901960784314,-247.50980392156862,-141.0,53.96,-40.84,80.77
996.6,-283.4901960784314,-296.5098039215686,-156.0,29.84,-53.55,72.58
996.65,-299.4901960784314,281.0,-172.0,24.49,-57.64,50.91
996.7,-299.4901960784314,264.0,-295.0,6.01,-45.22,25.19
996.75,311.01960784313724,166.0,286.5098039215686,24.0,-57.82,-4.41
996.8,247.01960784313727,166.0,39.509803921568626,81.75,-39.37,-5.01
996.85,120.01960784313725,183.0,-83.49019607843137,300.25,-67.2,70.06
996.9,65.50980392156863,-67.50980392156863,-313.4901960784314,255.59,5.8,84.62
996.95,-45.490196078431374,281.0,-9.980392156862745,157.0,74.23,102.54
997.0,-124.49019607843137,35.0,113.01960784313725,146.53,99.11,109.36
997.05,-108.49019607843137,232.0,-313.4901960784314,144.12,82.24,112.23
997.1,34.509803921568626,183.0,-21.49019607843137,120.88,58.58,102.99
997.15,18.50980392156863,68.0,101.50980392156863,88.64,42.03,86.3
997.2,-61.490196078431374,68.0,86.50980392156863,58.05,34.19,83.22
997.25,2.5098039215686274,-62.0,55.509803921568626,51.79,22.08,67.01
997.3,2.5098039215686274,-13.0,-67.49019607843137,25.19,21.69,61.52
997.35,34.509803921568626,-143.0,-113.49019607843137,36.49,9.72,58.02
997.4,177.50980392156862,-111.0,-190.49019607843138,27.43,9.48,59.56
997.45,177.50980392156862,-176.0,-190.49019607843138,18.5,9.06,50.91
997.5,224.50980392156862,-225.0,-160.49019607843138,-30.56,-6.4,30.23
997.55,240.50980392156862,-225.0,-36.490196078431374,-161.18,-45.74,-15.54
997.6,161.50980392156862,-241.0,163.50980392156862,-285.57,-82.98,-58.66
997.65,49.509803921568626,-127.0,-310.0,-286.16,-100.38,-103.92
997.7,-108.49019607843137,84.0,-279.0,-181.06,-117.7,-149.59
997.75,-267.4901960784314,313.0,224.50980392156862,-44.94,-138.35,-171.82
997.8,200.01960784313727,-263.5098039215686,224.50980392156862,110.76,-155.92,-176.79
997.85,-22.980392156862745,-116.50980392156863,24.50980392156863,142.19,-118.72,-120.4
997.9,-165.98039215686273,-182.50980392156862,-190.49019607843138,35.86,-60.16,-71.75
997.95,41.01960784313726,232.0,-67.49019607843137,-62.13,-9.94,-24.19
998.0,231.01960784313727,101.0,-6.490196078431373,-72.77,43.88,-5.67
998.05,263.01960784313724,281.0,-21.49019607843137,-7.32,62.5,1.11
998.1,-315.4901960784314,-149.50980392156862,39.509803921568626,9.54,74.54,19.8
998.15,-299.4901960784314,-198.50980392156862,163.50980392156862,-3.54,81.37,39.5
998.2,311.01960784313724,-280.5098039215686,286.5098039215686,-24.54,87.56,65.05
998.25,168.01960784313727,313.0,316.5098039215686,-38.92,88.54,96.13
998.3,104.01960784313725,-312.5098039215686,-264.0,-59.61,73.49,117.48
998.35,152.01960784313727,248.0,-172.0,-81.69,46.3,122.8
998.4,120.01960784313725,281.0,-218.0,-23.21,-5.67,108.56
998.45,-204.49019607843138,281.0,316.5098039215686,56.34,-38.18,87.28
998.5,-45.490196078431374,297.0,270.5098039215686,81.05,-47.46,65.19
998.55,-77.49019607843137,166.0,224.50980392156862,33.97,-61.56,32.82
998.6,-29.49019607843137,19.0,224.50980392156862,59.03,-75.81,-0.56
998.65,-156.49019607843138,117.0,70.50980392156863,82.06,-77.8,-16.59
998.7,-156.49019607843138,150.0,-6.490196078431373,72.02,-71.4,-36.72
998.75,-172.49019607843138,84.0,86.50980392156863,58.26,-63.45,-54.29
998.8,-220.49019607843138,133.0,86.50980392156863,58.82,-55.4,-61.36
998.85,-283.4901960784314,183.0,39.509803921568626,59.8,-40.42,-52.19
998.9,-299.4901960784314,232.0,55.509803921568626,46.89,-22.22,-35.28
998.95,-315.4901960784314,248.0,86.50980392156863,23.82,-2.52,-16.31
999.0,-283.4901960784314,248.0,132.50980392156862,-9.03,20.71,7.79
999.05,-283.4901960784314,232.0,86.50980392156863,-45.43,44.65,27.71
999.1,-267.4901960784314,183.0,70.50980392156863,-41.65,54.24,39.78
999.15,-220.49019607843138,199.0,9.509803921568627,-15.58,49.55,40.83
999.2,-188.49019607843138,215.0,-6.490196078431373,2.19,28.83,24.7
999.25,-156.49019607843138,215.0,86.50980392156863,-2.94,3.07,-6.13
999.3,-283.4901960784314,215.0,163.50980392156862,40.17,-10.32,-6.97
999.35,295.01960784313724,-247.50980392156862,86.50980392156863,115.87,-22.33,27.25
999.4,-124.49019607843137,-165.50980392156862,163.50980392156862,117.73,-18.93,39.99
999.45,-156.49019607843138,-296.5098039215686,-279.0,82.8,-14.63,44.72
999.5,-315.4901960784314,-296.5098039215686,-279.0,73.52,-14.21,59.07
999.55,247.01960784313727,-214.50980392156862,-264.0,60.4,-16.52,101.07
999.6,295.01960784313724,-231.50980392156862,-249.0,38.73,-19.67,127.91
999.65,311.01960784313724,-296.5098039215686,-295.0,41.39,-23.97,130.33
999.7,311.01960784313724,313.0,-295.0,48.04,-25.23,116.92
999.75,-299.4901960784314,297.0,239.50980392156862,46.85,-21.28,98.41
999.8,-299.4901960784314,232.0,239.50980392156862,20.6,-17.43,69.25
999.85,-267.4901960784314,150.0,224.50980392156862,32.85,-21.28,39.68
999.9,-236.49019607843138,183.0,147.50980392156862,38.52,-15.36,9.09
999.95,-267.4901960784314,133.0,101.50980392156863,12.94,1.92,-22.02
1000.0,-299.4901960784314,68.0,9.509803921568627,-11.41,3.21,-59.5
1000.05,-299.4901960784314,68.0,24.50980392156863,-71.19,26.31,-78.19
1000.1,120.01960784313725,68.0,55.509803921568626,-11.06,8.95,-78.16
1000.15,-93.49019607843137,264.0,-6.490196078431373,1.88,20.54,-78.26
1000.2,-156.49019607843138,264.0,132.50980392156862,-72.59,32.47,-73.96
1000.25,-267.4901960784314,150.0,255.50980392156862,-96.11,22.99,-64.58
1000.3,-220.49019607843138,264.0,224.50980392156862,-51.0,4.79,-49.35
1000.35,-108.49019607843137,-280.5098039215686,270.5098039215686,-21.42,-13.16,-47.5
1000.4,-108.49019607843137,-263.5098039215686,255.50980392156862,-20.76,-27.09,-48.02
1000.45,-77.49019607843137,297.0,255.50980392156862,-3.78,-34.82,-44.94
1000.5,-93.49019607843137,313.0,132.50980392156862,11.85,-31.53,-31.47
1000.55,-124.49019607843137,-296.5098039215686,39.509803921568626,-8.89,-14.56,-5.64
1000.6,-156.49019607843138,281.0,9.509803921568627,-18.9,-3.46,13.6
1000.65,-236.49019607843138,248.0,-6.490196078431373,-17.57,5.17,29.35
1000.7,-267.4901960784314,281.0,-36.490196078431374,-14.74,-2.13,27.43
1000.75,-188.49019607843138,264.0,24.50980392156863,12.38,-28.31,-7.21
1000.8,-267.4901960784314,264.0,116.50980392156863,80.31,-15.85,-0.63
1000.85,88.01960784313725,-149.50980392156862,-144.49019607843138,127.88,-5.18,55.01
1000.9,-252.49019607843138,-133.50980392156862,9.509803921568627,135.47,13.57,72.37
1000.95,-220.49019607843138,-296.5098039215686,286.5098039215686,93.51,30.9,67.89
1001.0,263.01960784313724,-296.5098039215686,193.50980392156862,84.3,38.98,71.74
1001.05,200.01960784313727,-231.50980392156862,316.5098039215686,38.77,41.4,95.01
1001.1,231.01960784313727,-263.5098039215686,-249.0,26.38,25.19,115.63
1001.15,-267.4901960784314,-263.5098039215686,-249.0,28.27,10.88,123.68
1001.2,-220.49019607843138,-312.5098039215686,-218.0,25.82,-2.59,112.93
1001.25,-172.49019607843138,264.0,-295.0,-0.56,-12.07,84.93
1001.3,-156.49019607843138,183.0,301.5098039215686,6.11,-24.92,49.34
1001.35,-93.49019607843137,183.0,193.50980392156862,33.31,-30.45,22.46
1001.4,-124.49019607843137,183.0,86.50980392156863,37.72,-28.45,-2.35
1001.45,-140.49019607843138,101.0,-6.490196078431373,4.43,-22.33,-43.65
1001.5,-252.49019607843138,35.0,9.509803921568627,-0.56,-30.66,-92.23
1001.55,200.01960784313727,52.0,55.509803921568626,-38.08,-16.41,-97.16
1001.6,72.01960784313725,133.0,-21.49019607843137,13.36,-29.68,-96.29
1001.65,-140.49019607843138,232.0,39.509803921568626,-19.11,2.58,-106.02
1001.7,311.01960784313724,133.0,147.50980392156862,-116.8,27.57,-111.93
1001.75,295.01960784313724,84.0,224.50980392156862,-171.36,35.62,-103.39
1001.8,-252.49019607843138,248.0,270.5098039215686,-121.52,22.5,-89.78
1001.85,-156.49019607843138,-263.5098039215686,-310.0,-39.03,-6.4,-77.91
1001.9,-140.49019607843138,-149.50980392156862,224.50980392156862,8.67,-30.87,-64.3
1001.95,-124.49019607843137,-214.50980392156862,224.50980392156862,7.86,-30.76,-36.79
1002.0,-172.49019607843138,-296.5098039215686,70.50980392156863,-6.48,-16.13,-7.63
1002.05,-124.49019607843137,313.0,55.509803921568626,-7.95,-5.39,15.21
1002.1,-172.49019607843138,313.0,-37.490196078431374,9.96,6.33,36.7
1002.15,-172.49019607843138,-296.5098039215686,-67.49019607843137,25.82,-3.43,52.98
1002.2,-156.49019607843138,-312.5098039215686,-52.490196078431374,49.06,-22.61,29.56
1002.25,-236.49019607843138,-312.5098039215686,70.50980392156863,118.18,-2.76,33.17
1002.3,72.01960784313725,-84.50980392156863,-144.49019607843138,157.35,19.84,78.25
1002.35,279.01960784313724,-149.50980392156862,116.50980392156863,106.56,55.78,104.18
1002.4,120.01960784313725,313.0,316.5098039215686,45.03,57.64,126.62
1002.45,152.01960784313727,297.0,270.5098039215686,51.05,45.74,137.36
1002.5,200.01960784313727,-280.5098039215686,-233.0,68.62,26.84,137.96
1002.55,231.01960784313727,-296.5098039215686,-187.0,64.42,12.8,136.28
1002.6,279.01960784313724,313.0,-172.0,50.14,-3.71,127.49
1002.65,-267.4901960784314,232.0,-126.0,12.76,-18.76,104.04
1002.7,-204.49019607843138,166.0,-172.0,-5.32,-35.03,73.0
1002.75,-140.49019607843138,183.0,-218.0,1.67,-50.64,31.87
1002.8,-108.49019607843137,183.0,-310.0,17.66,-56.03,-2.14
1002.85,-140.49019607843138,183.0,147.50980392156862,23.26,-52.95,-39.41
1002.9,-267.4901960784314,117.0,-6.490196078431373,-20.93,-43.92,-89.22
1002.95,168.01960784313727,-45.0,-67.49019607843137,-43.82,-27.54,-76.41
1003.0,231.01960784313727,52.0,-283.4901960784314,11.68,-31.81,-80.75
1003.05,-45.490196078431374,133.0,-252.49019607843138,-27.2,14.27,-97.58
1003.1,263.01960784313724,117.0,-21.49019607843137,-87.4,22.99,-88.34
1003.15,311.01960784313724,117.0,86.50980392156863,-80.19,15.25,-75.95
1003.2,-172.49019607843138,297.0,132.50980392156862,-33.92,6.33,-71.19
1003.25,-140.49019607843138,-214.50980392156862,224.50980392156862,-12.88,-6.51,-60.27
1003.3,-124.49019607843137,-247.50980392156862,209.50980392156862,-17.01,-14.77,-42.67
1003.35,-93.49019607843137,-296.5098039215686,209.50980392156862,1.25,-17.64,-17.26
1003.4,-93.49019607843137,-247.50980392156862,86.50980392156863,22.0,-17.6,12.34
1003.45,-108.49019607843137,-263.5098039215686,101.50980392156863,27.81,-14.45,33.34
1003.5,-220.49019607843138,-263.5098039215686,55.509803921568626,44.26,-25.2,54.8
1003.55,-204.49019607843138,-280.5098039215686,24.50980392156863,111.85,-42.24,36.28
1003.6,279.01960784313724,-263.5098039215686,39.509803921568626,104.74,-5.6,67.54
1003.65,-22.980392156862745,-231.50980392156862,-160.49019607843138,151.78,8.5,106.6
1003.7,-236.49019607843138,-247.50980392156862,86.50980392156863,161.51,29.64,123.05
1003.75,311.01960784313724,281.0,301.5098039215686,171.84,18.75,108.91
1003.8,216.01960784313727,313.0,239.50980392156862,249.22,-5.11,100.82
1003.85,231.01960784313727,-198.50980392156862,-187.0,236.55,0.1,91.76
1003.9,216.01960784313727,-296.5098039215686,-126.0,90.43,13.71,75.69
1003.95,-299.4901960784314,84.0,-79.0,20.08,10.21,50.63
1004.0,-156.49019607843138,117.0,-141.0,-18.2,7.34,22.81
1004.05,-108.49019607843137,215.0,-249.0,-50.75,-2.2,9.89
1004.1,-156.49019607843138,183.0,-203.0,-92.54,-10.53,2.54
1004.15,-236.49019607843138,183.0,-233.0,-91.21,-17.39,-5.5
1004.2,-283.4901960784314,248.0,255.50980392156862,-92.4,-11.58,-17.82
1004.25,295.01960784313724,183.0,147.50980392156862,-132.76,-2.34,-49.25
1004.3,104.01960784313725,84.0,70.50980392156863,-118.34,1.18,-28.39
1004.35,184.01960784313727,183.0,-36.490196078431374,30.33,-31.99,-17.15
1004.4,49.509803921568626,313.0,-190.49019607843138,26.24,1.85,-53.17
1004.45,-283.4901960784314,68.0,-52.490196078431374,-112.14,42.83,-55.55
1004.5,-299.4901960784314,-45.0,116.50980392156863,-94.08,27.78,-56.25
1004.55,-124.49019607843137,232.0,193.50980392156862,8.49,2.34,-54.22
1004.6,-108.49019607843137,-182.50980392156862,178.50980392156862,48.64,-12.67,-47.85
1004.65,-172.49019607843138,-247.50980392156862,209.50980392156862,45.91,-19.18,-31.57
1004.7,-172.49019607843138,-312.5098039215686,193.50980392156862,21.2,-16.62,-3.75
1004.75,-172.49019607843138,313.0,116.50980392156863,-0.46,-0.59,21.97
1004.8,-188.49019607843138,281.0,178.50980392156862,-2.84,7.73,35.41
1004.85,-204.49019607843138,264.0,147.50980392156862,17.28,-3.04,43.14
1004.9,-172.49019607843138,313.0,132.50980392156862,34.92,-25.72,37.02
1004.95,-77.49019607843137,281.0,193.50980392156862,87.21,-56.07,-20.09
1005.0,-252.49019607843138,297.0,178.50980392156862,107.79,-15.85,-7.6
1005.05,-38.98039215686274,-149.50980392156862,-98.49019607843137,173.2,-15.75,49.48
1005.1,-204.49019607843138,-100.50980392156863,86.50980392156863,161.13,17.18,72.09
1005.15,247.01960784313727,264.0,286.5098039215686,99.18,49.9,78.18
1005.2,88.01960784313725,281.0,178.50980392156862,86.23,57.99,86.37
1005.25,247.01960784313727,-312.5098039215686,301.5098039215686,67.54,53.33,89.17
1005.3,-315.4901960784314,297.0,-203.0,43.74,39.4,79.96
1005.35,-315.4901960784314,297.0,-141.0,62.32,13.64,69.95
1005.4,-252.49019607843138,-296.5098039215686,-156.0,75.73,-4.13,65.47
1005.45,-236.49019607843138,-296.5098039215686,-110.0,48.53,-9.06,76.92
1005.5,-315.4901960784314,297.0,-95.0,-39.2,29.11,117.2
1005.55,216.01960784313727,-312.5098039215686,178.50980392156862,-30.84,54.77,176.14
1005.6,-299.4901960784314,-67.50980392156863,144.01960784313727,-42.63,107.48,199.24
1005.65,9.019607843137255,128.49019607843138,-132.98039215686273,0.13,111.47,271.59
1005.7,49.509803921568626,226.49019607843138,294.52941176470586,-8.86,145.21,299.66
1005.75,-77.49019607843137,-286.01960784313724,-101.98039215686275,-28.11,122.95,325.8
1005.8,65.50980392156863,-204.01960784313727,175.01960784313727,-21.77,76.5,-299.32
1005.85,320.5098039215686,-220.01960784313727,-98.49019607843137,-4.06,18.61,-317.52
1005.9,-20.0,62.490196078431374,255.50980392156862,19.94,-21.56,302.04
1005.95,249.0,-198.50980392156862,-264.0,-30.94,-67.3,261.51
1006.0,-298.5098039215686,68.0,-110.0,-31.12,-72.31,242.29
1006.05,281.0,166.0,-203.0,-44.38,-70.31,207.89
1006.1,122.0,-45.0,-279.0,-66.71,-64.19,157.84
1006.15,-100.0,-290.0,162.50980392156862,-53.48,-67.44,91.34
1006.2,-243.0,123.50980392156863,9.509803921568627,-28.88,-56.24,72.44
1006.25,-100.0,-274.0,-267.4901960784314,-58.14,-8.26,60.54
1006.3,-259.0,-290.0,190.01960784313727,-52.26,25.02,37.89
1006.35,-250.50980392156862,90.50980392156863,67.01960784313725,-43.19,25.89,48.53
1006.4,-218.50980392156862,-13.0,-21.49019607843137,-64.44,16.62,29.67
1006.45,-123.50980392156863,-209.0,86.50980392156863,-66.71,3.88,-7.6
1006.5,-91.50980392156863,-290.0,-144.49019607843138,-40.15,4.82,-22.72
1006.55,-266.5098039215686,68.0,-267.4901960784314,-24.15,12.59,-27.65
1006.6,313.0,52.0,-267.4901960784314,-27.62,11.96,-24.43
1006.65,-218.50980392156862,35.0,-221.49019607843138,-30.56,11.82,-34.34
1006.7,-170.50980392156862,3.0,313.01960784313724,-15.19,1.99,-33.81
1006.75,-75.50980392156863,3.0,-236.49019607843138,-9.63,5.1,-22.89
1006.8,-43.509803921568626,199.0,-313.4901960784314,-1.58,12.31,-20.3
1006.85,-170.50980392156862,199.0,-313.4901960784314,9.54,12.28,-26.85
1006.9,-139.50980392156862,166.0,-298.4901960784314,31.94,5.52,-31.54
1006.95,-123.50980392156863,232.0,-283.4901960784314,21.16,23.83,-40.71
1007.0,-234.50980392156862,35.0,236.01960784313727,-5.74,1.18,-73.22
1007.05,-139.50980392156862,-62.0,298.01960784313724,28.3,9.02,-48.58
1007.1,249.0,-100.50980392156863,-37.490196078431374,22.14,36.99,-40.15
1007.15,170.0,84.0,190.01960784313727,7.44,10.95,-28.39
1007.2,-186.50980392156862,183.0,-98.49019607843137,12.06,10.74,-17.19
1007.25,-202.50980392156862,150.0,-129.49019607843138,5.48,17.88,-0.67
1007.3,-186.50980392156862,101.0,-252.49019607843138,-3.75,10.91,7.16
1007.35,-202.50980392156862,3.0,-175.49019607843138,-25.17,6.54,11.71
1007.4,-218.50980392156862,19.0,-144.49019607843138,-19.78,1.36,22.88
1007.45,-218.50980392156862,68.0,-144.49019607843138,-17.71,3.88,31.7
1007.5,-218.50980392156862,19.0,-190.49019607843138,-15.19,9.65,38.77
1007.55,-234.50980392156862,35.0,-190.49019607843138,-22.4,7.38,47.41
1007.6,-91.50980392156863,35.0,-267.4901960784314,32.15,8.99,67.36
1007.65,-43.509803921568626,297.0,-298.4901960784314,69.25,38.14,48.18
1007.7,-250.50980392156862,-78.0,-283.4901960784314,-9.63,3.07,-26.01
1007.75,51.490196078431374,303.5098039215686,316.5098039215686,-5.71,-21.42,-76.16
1007.8,-11.509803921568627,303.5098039215686,147.50980392156862,-70.7,-66.5,-109.69
1007.85,35.490196078431374,-45.0,-264.0,-118.58,-102.09,-114.63
1007.9,-59.509803921568626,-296.5098039215686,316.5098039215686,11.36,-149.17,-84.81
1007.95,-202.50980392156862,46.490196078431374,-36.490196078431374,79.75,-181.89,-21.42
1008.0,265.0,209.49019607843138,-36.490196078431374,162.88,-192.36,13.92
1008.05,42.0,-2.5098039215686274,-283.4901960784314,53.85,-193.27,26.03
1008.1,-147.0,264.0,-252.49019607843138,-34.55,-150.71,39.82
1008.15,161.50980392156862,199.0,282.01960784313724,-93.38,-110.74,1.95
1008.2,49.509803921568626,199.0,190.01960784313727,-70.32,-81.37,-25.45
1008.25,-61.490196078431374,297.0,159.01960784313727,-41.48,-53.86,-56.67
1008.3,-188.49019607843138,-214.50980392156862,-9.980392156862745,-36.86,-22.33,-83.27
1008.35,-252.49019607843138,-231.50980392156862,144.01960784313727,-54.64,-32.51,-70.98
1008.4,-140.49019607843138,-133.50980392156862,252.01960784313727,-36.72,-38.15,-27.62
1008.45,113.50980392156863,199.0,9.509803921568627,-31.85,-28.28,-16.38
1008.5,-275.0,281.0,-21.49019607843137,-36.33,-4.16,-12.15
1008.55,-147.0,248.0,-160.49019607843138,-74.27,40.98,-35.14
1008.6,272.5098039215686,-45.0,-190.49019607843138,-51.63,36.01,-38.82
1008.65,-93.49019607843137,-176.0,-160.49019607843138,-17.85,-14.17,-19.29
1008.7,-124.49019607843137,248.0,70.50980392156863,-27.72,-33.7,9.16
1008.75,-124.49019607843137,-280.5098039215686,-36.490196078431374,-15.23,-23.69,18.61
1008.8,-77.49019607843137,-296.5098039215686,-190.49019607843138,-6.72,-10.01,23.51
1008.85,2.5098039215686274,248.0,-190.49019607843138,-13.76,0.8,18.36
1008.9,-93.49019607843137,-280.5098039215686,-113.49019607843137,-18.62,33.45,12.2
1008.95,-77.49019607843137,183.0,-175.49019607843138,-18.76,50.39,13.67
1009.0,113.50980392156863,264.0,282.01960784313724,-3.5,11.19,68.48
1009.05,177.50980392156862,-2.5098039215686274,-67.49019607843137,64.88,-19.25,25.05
1009.1,-315.4901960784314,95.49019607843137,-252.49019607843138,5.34,-49.28,49.79
1009.15,-108.49019607843137,-263.5098039215686,193.50980392156862,4.57,-59.46,44.16
1009.2,304.5098039215686,-18.50980392156863,286.5098039215686,22.67,-38.99,21.51
1009.25,240.50980392156862,46.490196078431374,147.50980392156862,4.61,-18.76,9.16
1009.3,-140.49019607843138,-100.50980392156863,-36.490196078431374,-10.82,-22.12,0.9
1009.35,-77.49019607843137,-149.50980392156862,132.50980392156862,-11.87,-24.88,2.47
1009.4,129.50980392156862,-67.50980392156863,132.50980392156862,10.94,-19.6,3.28
1009.45,161.50980392156862,-67.50980392156863,-36.490196078431374,13.74,-21.49,4.19
1009.5,97.50980392156863,-149.50980392156862,24.50980392156863,6.78,-24.64,1.28
1009.55,34.509803921568626,-84.50980392156863,101.50980392156863,3.77,-21.52,-1.54
1009.6,49.509803921568626,-67.50980392156863,70.50980392156863,8.56,-18.76,-12.36
1009.65,2.5098039215686274,-116.50980392156863,86.50980392156863,-14.81,8.85,-23.84
1009.7,-45.490196078431374,-165.50980392156862,9.509803921568627,18.68,26.49,-36.3
1009.75,97.50980392156863,-67.50980392156863,-21.49019607843137,8.11,28.27,-38.75
1009.8,-252.49019607843138,79.49019607843137,-52.490196078431374,1.0,14.83,-22.58
1009.85,247.01960784313727,-67.50980392156863,116.50980392156863,13.95,-12.39,-9.14
1009.9,-13.490196078431373,232.0,224.50980392156862,-23.59,-6.61,-5.5
1009.95,65.50980392156863,281.0,286.5098039215686,1.91,18.19,-9.7
1010.0,-140.49019607843138,-231.50980392156862,-83.49019607843137,-5.71,18.16,-12.95
1010.05,-188.49019607843138,-312.5098039215686,55.509803921568626,-15.82,6.68,-11.66
1010.1,-29.49019607843137,232.0,193.50980392156862,-8.79,0.8,-4.27
1010.15,-13.490196078431373,313.0,24.50980392156863,-2.56,-8.61,7.44
1010.2,-29.49019607843137,-312.5098039215686,-36.490196078431374,5.27,-12.49,17.56
1010.25,2.5098039215686274,297.0,-52.490196078431374,9.02,-13.12,25.05
1010.3,49.509803921568626,281.0,-52.490196078431374,19.69,-15.15,32.12
1010.35,18.50980392156863,281.0,-21.49019607843137,-5.5,14.9,34.53
1010.4,-61.490196078431374,232.0,-98.49019607843137,20.22,34.15,33.97
1010.45,129.50980392156862,313.0,-283.4901960784314,0.2,12.52,83.43
1010.5,97.50980392156863,-182.50980392156862,-175.49019607843138,120.67,-23.41,41.99
1010.55,216.01960784313727,-302.01960784313724,-252.49019607843138,-26.67,-26.39,50.14
1010.6,-77.49019607843137,68.0,-249.0,19.55,-76.16,58.93
1010.65,-259.0,13.490196078431373,-203.0,89.69,-60.79,29.18
1010.7,193.50980392156862,226.49019607843138,55.509803921568626,19.03,-26.39,17.24
1010.75,-315.4901960784314,-149.50980392156862,9.509803921568627,-19.6,-23.97,4.33
1010.8,-77.49019607843137,-182.50980392156862,286.5098039215686,-3.33,-21.63,1.74
1010.85,145.50980392156862,-35.509803921568626,163.50980392156862,4.08,-8.82,-1.44
1010.9,129.50980392156862,-67.50980392156863,70.50980392156863,4.89,0.34,-2.94
1010.95,49.509803921568626,-84.50980392156863,55.509803921568626,0.0,-0.8,-7.04
1011.0,34.509803921568626,-51.509803921568626,101.50980392156863,11.68,-10.15,-5.04
1011.05,2.5098039215686274,-51.509803921568626,86.50980392156863,-7.07,-18.37,-9.45
1011.1,-61.490196078431374,-165.50980392156862,147.50980392156862,-18.76,2.93,-17.36
1011.15,2.5098039215686274,-100.50980392156863,24.50980392156863,0.58,27.36,-29.54
1011.2,129.50980392156862,-67.50980392156863,-6.490196078431373,21.97,30.83,-43.72
1011.25,-188.49019607843138,13.490196078431373,-21.49019607843137,-25.38,30.44,-29.79
1011.3,263.01960784313724,-116.50980392156863,55.509803921568626,10.17,-0.91,-5.46
1011.35,81.50980392156863,-280.5098039215686,255.50980392156862,8.56,-17.01,-11.8
1011.4,177.50980392156862,264.0,286.5098039215686,5.52,-7.45,-13.3
1011.45,-156.49019607843138,-214.50980392156862,116.50980392156863,-27.41,12.42,-7.18
1011.5,279.01960784313724,-280.5098039215686,-36.490196078431374,-15.44,9.62,-0.98
1011.55,-61.490196078431374,-296.5098039215686,9.509803921568627,17.38,-6.72,10.24
1011.6,65.50980392156863,-312.5098039215686,-6.490196078431373,32.5,-23.27,21.72
1011.65,18.50980392156863,-296.5098039215686,-6.490196078431373,42.41,-38.18,35.2
1011.7,18.50980392156863,-214.50980392156862,-6.490196078431373,41.25,-50.85,47.66
1011.75,2.5098039215686274,-247.50980392156862,86.50980392156863,42.62,-55.16,51.54
1011.8,-124.49019607843137,-182.50980392156862,70.50980392156863,25.85,-47.32,45.07
1011.85,-172.49019607843138,-280.5098039215686,116.50980392156863,29.46,-26.74,43.56
1011.9,-29.49019607843137,-312.5098039215686,-21.49019607843137,46.12,-8.82,45.03
1011.95,81.50980392156863,-263.5098039215686,-52.490196078431374,58.75,-7.84,49.55
1012.0,34.509803921568626,-231.50980392156862,-21.49019607843137,51.51,-19.35,63.83
1012.05,18.50980392156863,-182.50980392156862,-21.49019607843137,72.05,-51.73,86.51
1012.1,-93.49019607843137,46.490196078431374,24.50980392156863,64.35,-54.39,81.19
1012.15,-156.49019607843138,193.49019607843138,101.50980392156863,25.4,-62.33,70.34
1012.2,-45.490196078431374,-214.50980392156862,-295.0,-0.35,-68.46,64.18
1012.25,113.50980392156863,-198.50980392156862,-249.0,24.94,-70.63,69.64
1012.3,208.50980392156862,128.49019607843138,193.50980392156862,43.07,-69.51,69.6
1012.35,129.50980392156862,160.49019607843138,163.50980392156862,20.36,-73.15,67.08
1012.4,2.5098039215686274,62.490196078431374,286.5098039215686,22.98,-69.58,65.96
1012.45,113.50980392156863,79.49019607843137,224.50980392156862,44.3,-61.84,62.46
1012.5,177.50980392156862,193.49019607843138,147.50980392156862,57.39,-56.91,54.59
1012.55,113.50980392156863,177.49019607843138,209.50980392156862,52.91,-51.9,38.35
1012.6,2.5098039215686274,177.49019607843138,224.50980392156862,43.35,-49.7,29.42
1012.65,34.509803921568626,128.49019607843138,270.5098039215686,47.45,-41.65,26.69
1012.7,145.50980392156862,128.49019607843138,209.50980392156862,52.49,-36.19,22.95
1012.75,161.50980392156862,160.49019607843138,193.50980392156862,47.97,-35.94,21.86
1012.8,129.50980392156862,95.49019607843137,255.50980392156862,46.89,-30.76,20.32
1012.85,145.50980392156862,111.49019607843137,193.50980392156862,38.1,-26.84,17.14
1012.9,177.50980392156862,95.49019607843137,209.50980392156862,42.51,-22.43,12.06
1012.95,161.50980392156862,144.49019607843138,193.50980392156862,38.66,-19.04,4.36
1013.0,81.50980392156863,111.49019607843137,209.50980392156862,31.1,-16.97,-5.11
1013.05,49.509803921568626,46.490196078431374,193.50980392156862,31.0,-17.36,-10.26
1013.1,97.50980392156863,62.490196078431374,147.50980392156862,28.16,-17.85,-12.08
1013.15,81.50980392156863,-18.50980392156863,163.50980392156862,44.54,-20.68,-16.8
1013.2,97.50980392156863,-84.50980392156863,86.50980392156863,82.03,-39.34,-25.73
1013.25,18.50980392156863,-263.5098039215686,116.50980392156863,17.28,-46.58,-12.74
1013.3,-172.49019607843138,313.0,209.50980392156862,26.76,-20.86,-5.01
1013.35,216.01960784313727,-84.50980392156863,221.01960784313727,39.57,-29.19,1.91
1013.4,-61.490196078431374,232.0,-144.49019607843138,42.86,-36.15,1.11
1013.45,193.50980392156862,232.0,162.50980392156862,65.33,-28.0,7.23
1013.5,49.509803921568626,-296.5098039215686,-52.490196078431374,44.12,-42.59,15.18
1013.55,-172.49019607843138,297.0,86.50980392156863,22.28,-44.9,22.98
1013.6,-156.49019607843138,199.0,101.50980392156863,41.6,-40.21,27.39
1013.65,18.50980392156863,297.0,-6.490196078431373,44.33,-32.37,31.35
1013.7,-45.490196078431374,264.0,39.509803921568626,45.42,-25.16,37.09
1013.75,-108.49019607843137,297.0,55.509803921568626,44.61,-19.04,42.44
1013.8,-77.49019607843137,248.0,55.509803921568626,31.17,-15.43,40.8
1013.85,-124.49019607843137,-312.5098039215686,132.50980392156862,12.97,-10.01,37.33
1013.9,-108.49019607843137,281.0,101.50980392156863,4.33,-13.23,29.21
1013.95,-93.49019607843137,313.0,116.50980392156863,0.34,-15.64,27.81
1014.0,-108.49019607843137,313.0,9.509803921568627,-5.01,-21.21,36.7
1014.05,-172.49019607843138,-231.50980392156862,-6.490196078431373,13.64,-37.9,49.97
1014.1,-204.49019607843138,30.49019607843137,86.50980392156863,-6.69,-21.21,37.05
1014.15,279.01960784313724,313.0,55.509803921568626,-12.32,-8.61,36.35
1014.2,-13.490196078431373,-231.50980392156862,132.50980392156862,22.28,-11.2,37.72
1014.25,113.50980392156863,-18.50980392156863,239.50980392156862,14.23,-11.02,34.88
1014.3,-124.49019607843137,-133.50980392156862,270.5098039215686,9.86,-15.99,27.99
1014.35,-108.49019607843137,-35.509803921568626,-295.0,2.05,-14.91,20.39
1014.4,-61.490196078431374,-67.50980392156863,-310.0,9.82,-3.74,12.48
1014.45,-29.49019607843137,-18.50980392156863,178.50980392156862,14.79,4.61,5.94
1014.5,-29.49019607843137,-2.5098039215686274,147.50980392156862,17.24,5.77,1.14
1014.55,-29.49019607843137,-18.50980392156863,178.50980392156862,15.11,-4.65,0.9
1014.6,-13.490196078431373,-67.50980392156863,239.50980392156862,22.6,-10.71,-0.77
1014.65,2.5098039215686274,-18.50980392156863,193.50980392156862,17.66,-11.72,-3.43
1014.7,-13.490196078431373,-35.509803921568626,193.50980392156862,6.81,-8.71,-9.56
1014.75,-29.49019607843137,-84.50980392156863,178.50980392156862,-3.15,-2.55,-17.29
1014.8,-13.490196078431373,-67.50980392156863,132.50980392156862,1.46,-2.38,-21.46
1014.85,2.5098039215686274,-84.50980392156863,132.50980392156862,-14.18,0.52,-24.82
1014.9,-13.490196078431373,-182.50980392156862,239.50980392156862,-6.9,16.06,-28.11
1014.95,-13.490196078431373,-67.50980392156863,55.509803921568626,-6.06,27.78,-30.66
1015.0,34.509803921568626,-100.50980392156863,39.509803921568626,3.14,32.05,-33.95
1015.05,-45.490196078431374,-100.50980392156863,86.50980392156863,9.09,11.37,-42.11
1015.1,311.01960784313724,-18.50980392156863,116.50980392156863,-26.36,15.18,-25.24
1015.15,279.01960784313724,-35.509803921568626,24.50980392156863,15.56,6.78,-10.75
1015.2,81.50980392156863,183.0,193.50980392156862,-21.0,-0.63,-4.59
1015.25,129.50980392156862,150.0,-218.0,11.57,33.31,-10.08
1015.3,311.01960784313724,-100.50980392156863,-237.49019607843138,0.69,24.74,-7.6
1015.35,-299.4901960784314,281.0,24.50980392156863,-7.14,3.42,-3.33
1015.4,18.50980392156863,183.0,270.5098039215686,8.84,-0.52,7.58
1015.45,34.509803921568626,264.0,-6.490196078431373,15.77,-8.43,20.04
1015.5,-29.49019607843137,297.0,-6.490196078431373,18.99,-16.2,30.4
1015.55,-77.49019607843137,313.0,39.509803921568626,12.06,-20.79,31.07
1015.6,-140.49019607843138,-296.5098039215686,101.50980392156863,-22.05,-6.61,23.75
1015.65,-204.49019607843138,-312.5098039215686,132.50980392156862,-14.81,20.82,18.08
1015.7,-13.490196078431373,313.0,-67.49019607843137,1.98,40.73,14.44
1015.75,49.509803921568626,-280.5098039215686,-144.49019607843138,7.58,31.91,13.53
1015.8,-45.490196078431374,-312.5098039215686,-36.490196078431374,-11.55,11.23,26.76
1015.85,-93.49019607843137,313.0,-36.490196078431374,18.08,-14.38,39.15
1015.9,-236.49019607843138,177.49019607843138,-6.490196078431373,15.0,7.73,9.75
1015.95,247.01960784313727,-198.50980392156862,-221.49019607843138,-30.03,3.35,19.13
1016.0,81.50980392156863,-296.5098039215686,209.50980392156862,17.87,-20.72,24.1
1016.05,-290.0,-2.5098039215686274,-279.0,33.34,-22.36,12.48
1016.1,65.50980392156863,-116.50980392156863,224.50980392156862,1.88,-8.22,-8.05
1016.15,-315.4901960784314,46.490196078431374,70.50980392156863,-30.35,-0.31,-18.34
1016.2,-140.49019607843138,-100.50980392156863,132.50980392156862,-19.67,-0.31,-13.06
1016.25,193.50980392156862,-100.50980392156863,147.50980392156862,-4.48,-2.1,-8.37
1016.3,145.50980392156862,-84.50980392156863,55.509803921568626,-7.11,-7.31,-9.28
1016.35,-61.490196078431374,-84.50980392156863,70.50980392156863,-12.29,-10.25,-12.57
1016.4,-77.49019607843137,-116.50980392156863,70.50980392156863,-10.36,-8.12,-14.67
1016.45,18.50980392156863,-100.50980392156863,39.509803921568626,-7.39,-3.67,-16.7
1016.5,34.509803921568626,-67.50980392156863,55.509803921568626,-9.87,-5.56,-16.45
1016.55,2.5098039215686274,-165.50980392156862,101.50980392156863,-22.61,-2.8,-19.29
1016.6,-13.490196078431373,-133.50980392156862,86.50980392156863,-28.0,5.8,-23.98
1016.65,-29.49019607843137,-133.50980392156862,24.50980392156863,-22.05,21.87,-21.95
1016.7,34.509803921568626,-165.50980392156862,-52.490196078431374,-1.02,29.04,-25.62
1016.75,34.509803921568626,-165.50980392156862,-21.49019607843137,28.69,10.21,-29.26
1016.8,-172.49019607843138,-67.50980392156863,9.509803921568627,-2.77,0.1,-22.19
1016.85,216.01960784313727,30.49019607843137,70.50980392156863,9.58,-12.0,-8.61
1016.9,-108.49019607843137,-280.5098039215686,239.50980392156862,-1.68,-20.4,-13.3
1016.95,65.50980392156863,232.0,-279.0,-33.39,14.9,-25.76
1017.0,-204.49019607843138,-312.5098039215686,255.50980392156862,-15.19,35.52,-25.55
1017.05,-315.4901960784314,-263.5098039215686,-113.49019607843137,-20.65,24.07,-22.79
1017.1,-77.49019607843137,248.0,209.50980392156862,-22.96,6.26,-17.12
1017.15,2.5098039215686274,248.0,224.50980392156862,-16.59,-3.78,-6.83
1017.2,-93.49019607843137,313.0,86.50980392156863,-20.58,-6.51,-3.71
1017.25,-124.49019607843137,281.0,116.50980392156863,-36.05,3.28,-5.74
1017.3,-93.49019607843137,264.0,86.50980392156863,-41.2,16.34,-2.45
1017.35,-77.49019607843137,297.0,39.509803921568626,-24.75,24.7,-1.79
1017.4,-156.49019607843138,-296.5098039215686,24.50980392156863,-43.51,45.14,-0.95
1017.45,-77.49019607843137,248.0,-98.49019607843137,-10.43,60.93,5.38
1017.5,65.50980392156863,313.0,-236.49019607843138,12.34,27.82,43.07
1017.55,-140.49019607843138,-84.50980392156863,-67.49019607843137,41.99,15.04,9.86
1017.6,120.01960784313725,226.49019607843138,-144.49019607843138,-28.32,5.59,18.47
1017.65,-13.490196078431373,150.0,178.50980392156862,21.86,-28.56,32.15
1017.7,-275.0,-35.509803921568626,-218.0,32.29,-25.9,14.09
1017.75,-13.490196078431373,-84.50980392156863,239.50980392156862,-13.37,-8.15,-5.74
1017.8,295.01960784313724,-84.50980392156863,116.50980392156863,-42.98,-4.06,-16.52
1017.85,-45.490196078431374,-149.50980392156862,224.50980392156862,-30.84,1.85,-13.69
1017.9,177.50980392156862,-133.50980392156862,70.50980392156863,-9.38,0.83,-6.34
1017.95,113.50980392156863,-84.50980392156863,39.509803921568626,-10.05,-4.97,-6.76
1018.0,-29.49019607843137,-133.50980392156862,39.509803921568626,-8.09,-8.01,-8.75
1018.05,-45.490196078431374,-100.50980392156863,55.509803921568626,-6.79,-8.96,-10.71
1018.1,34.509803921568626,-100.50980392156863,86.50980392156863,-2.38,-3.46,-12.85
1018.15,18.50980392156863,-84.50980392156863,55.509803921568626,-3.68,5.14,-17.08
1018.2,-13.490196078431373,-165.50980392156862,55.509803921568626,-1.51,21.24,-28.46
1018.25,-29.49019607843137,-100.50980392156863,9.509803921568627,22.04,15.46,-35.49
1018.3,-220.49019607843138,-51.509803921568626,70.50980392156863,1.7,10.77,-33.43
1018.35,184.01960784313727,128.49019607843138,101.50980392156863,10.31,6.4,-10.82
1018.4,-93.49019607843137,264.0,178.50980392156862,-31.68,6.4,-5.08
1018.45,81.50980392156863,199.0,-280.0,9.61,34.08,-13.41
1018.5,-108.49019607843137,-133.50980392156862,-36.490196078431374,0.48,30.79,-10.85
1018.55,-252.49019607843138,281.0,9.509803921568627,-13.86,5.87,-6.2
1018.6,-77.49019607843137,248.0,209.50980392156862,-4.45,-12.56,3.49
1018.65,49.509803921568626,313.0,55.509803921568626,20.32,-22.43,18.22
1018.7,65.50980392156863,-280.5098039215686,-67.49019607843137,21.79,-30.59,31.56
1018.75,-13.490196078431373,-312.5098039215686,-21.49019607843137,26.27,-33.46,41.11
1018.8,-13.490196078431373,-280.5098039215686,70.50980392156863,22.42,-26.56,38.35
1018.85,-124.49019607843137,-247.50980392156862,55.509803921568626,-16.38,8.29,36.88
1018.9,-29.49019607843137,183.0,-83.49019607843137,23.65,34.99,30.26
1018.95,97.50980392156863,-247.50980392156862,-267.4901960784314,79.37,-12.42,80.59
1019.0,81.50980392156863,-51.509803921568626,9.509803921568627,93.23,-23.1,49.37
1019.05,-299.4901960784314,-171.01960784313727,-67.49019607843137,-0.21,-37.45,60.57
1019.1,-204.49019607843138,52.0,147.50980392156862,11.15,-72.87,77.27
1019.15,320.5098039215686,-84.50980392156863,-203.0,61.83,-71.89,53.92
1019.2,272.5098039215686,144.49019607843138,209.50980392156862,47.45,-39.13,28.62
1019.25,-172.49019607843138,-2.5098039215686274,24.50980392156863,2.02,-24.25,15.18
1019.3,-172.49019607843138,-67.50980392156863,178.50980392156862,6.57,-24.5,16.72
1019.35,145.50980392156862,-67.50980392156863,163.50980392156862,23.58,-28.21,19.8
1019.4,161.50980392156862,-18.50980392156863,86.50980392156863,23.72,-29.01,15.35
1019.45,34.509803921568626,-18.50980392156863,132.50980392156862,17.59,-25.9,9.37
1019.5,-29.49019607843137,-51.509803921568626,86.50980392156863,18.78,-22.22,3.84
1019.55,34.509803921568626,-35.509803921568626,116.50980392156863,16.82,-15.75,-3.4
1019.6,18.50980392156863,-67.50980392156863,116.50980392156863,3.28,-1.71,-15.51
1019.65,-13.490196078431373,-84.50980392156863,101.50980392156863,12.1,8.95,-32.73
1019.7,18.50980392156863,-100.50980392156863,70.50980392156863,7.69,14.31,-37.0
1019.75,-124.49019607843137,62.490196078431374,9.509803921568627,0.23,22.92,-17.89
1019.8,-252.49019607843138,-100.50980392156863,9.509803921568627,33.2,3.63,-9.59
1019.85,65.50980392156863,-296.5098039215686,209.50980392156862,14.2,-4.02,-6.41
1019.9,97.50980392156863,313.0,224.50980392156862,14.3,4.26,-5.15
1019.95,-220.49019607843138,-182.50980392156862,-6.490196078431373,4.54,3.95,-0.18
1020.0,-267.4901960784314,313.0,-83.49019607843137,15.0,-6.37,8.95
1020.05,34.509803921568626,313.0,9.509803921568627,36.81,-20.16,19.9
1020.1,113.50980392156863,264.0,9.509803921568627,56.44,-35.07,33.76
1020.15,2.5098039215686274,-280.5098039215686,-83.49019607843137,58.44,-52.57,56.55
1020.2,-45.490196078431374,-247.50980392156862,-52.490196078431374,66.35,-68.42,69.88
1020.25,2.5098039215686274,-263.5098039215686,86.50980392156863,55.99,-69.23,68.27
1020.3,-108.49019607843137,297.0,101.50980392156863,46.61,-54.07,65.54
1020.35,-13.490196078431373,-296.5098039215686,-6.490196078431373,54.52,-29.29,65.3
1020.4,65.50980392156863,-247.50980392156862,-52.490196078431374,63.16,-9.69,66.59
1020.45,49.509803921568626,-280.5098039215686,-129.49019607843138,60.75,-35.59,105.02
1020.5,97.50980392156863,-84.50980392156863,-21.49019607843137,89.52,-57.92,94.24
1020.55,-283.4901960784314,-171.01960784313727,-36.490196078431374,49.27,-67.97,99.14
1020.6,-140.49019607843138,-280.5098039215686,163.50980392156862,30.75,-91.77,98.76
1020.65,208.50980392156862,-67.50980392156863,-264.0,58.26,-92.89,96.2
1020.7,272.5098039215686,79.49019607843137,209.50980392156862,66.59,-81.06,84.58
1020.75,129.50980392156862,177.49019607843138,193.50980392156862,52.63,-77.28,75.31
1020.8,-13.490196078431373,111.49019607843137,239.50980392156862,52.52,-85.85,71.21
1020.85,113.50980392156863,128.49019607843138,193.50980392156862,78.07,-93.34,70.3
1020.9,193.50980392156862,193.49019607843138,147.50980392156862,89.13,-94.08,64.74
1020.95,113.50980392156863,209.49019607843138,193.50980392156862,80.0,-89.91,52.49
1021.0,65.50980392156863,128.49019607843138,270.5098039215686,72.51,-80.6,40.27
1021.05,81.50980392156863,160.49019607843138,255.50980392156862,64.53,-64.64,28.23
1021.1,81.50980392156863,62.490196078431374,209.50980392156862,55.32,-47.88,19.83
1021.15,97.50980392156863,62.490196078431374,193.50980392156862,55.99,-37.55,15.46
1021.2,129.50980392156862,79.49019607843137,193.50980392156862,49.23,-29.96,6.6
1021.25,81.50980392156863,62.490196078431374,193.50980392156862,56.93,-31.01,-2.98
1021.3,-13.490196078431373,46.490196078431374,193.50980392156862,40.73,-30.73,-0.56
1021.35,-108.49019607843137,-100.50980392156863,209.50980392156862,46.19,-34.4,4.36
1021.4,-45.490196078431374,-198.50980392156862,239.50980392156862,38.0,-21.98,0.97
1021.45,-124.49019607843137,-182.50980392156862,116.50980392156863,30.09,-9.2,-4.34
1021.5,-267.4901960784314,-198.50980392156862,70.50980392156863,22.14,-9.03,-2.66
1021.55,-204.49019607843138,-280.5098039215686,147.50980392156862,26.24,-19.88,-1.19
1021.6,-140.49019607843138,-296.5098039215686,178.50980392156862,21.16,-23.59,1.98
1021.65,-124.49019607843137,297.0,147.50980392156862,16.68,-17.22,4.82
1021.7,-77.49019607843137,-312.5098039215686,101.50980392156863,19.97,-16.87,8.39
1021.75,-61.490196078431374,-296.5098039215686,116.50980392156863,9.72,-16.48,10.7
1021.8,-108.49019607843137,313.0,162.50980392156862,7.55,-16.38,13.71
1021.85,-124.49019607843137,-312.5098039215686,116.50980392156863,-2.03,-8.15,16.47
1021.9,-77.49019607843137,-312.5098039215686,116.50980392156863,5.8,4.05,15.0
1021.95,-61.490196078431374,313.0,24.50980392156863,9.79,14.1,15.14
1022.0,-45.490196078431374,313.0,9.509803921568627,10.45,19.42,14.83
1022.05,-93.49019607843137,313.0,39.509803921568626,5.03,23.97,14.02
1022.1,-93.49019607843137,313.0,24.50980392156863,-4.13,20.89,34.6
1022.15,-93.49019607843137,-247.50980392156862,-52.490196078431374,42.06,4.3,25.92
1022.2,-283.4901960784314,275.4901960784314,24.50980392156863,-6.55,21.66,7.76
1022.25,263.01960784313724,183.0,-98.49019607843137,-16.52,11.51,22.11
1022.3,145.50980392156862,-247.50980392156862,209.50980392156862,24.87,-19.35,36.84
1022.35,-306.0,13.490196078431373,-310.0,35.83,-37.24,20.11
1022.4,18.50980392156863,-149.50980392156862,270.5098039215686,-7.18,-7.63,4.57
1022.45,311.01960784313724,-18.50980392156863,-6.490196078431373,-14.74,2.44,0.41
1022.5,-29.49019607843137,-67.50980392156863,24.50980392156863,1.25,-7.52,4.43
1022.55,193.50980392156862,-116.50980392156863,147.50980392156862,3.8,-14.07,5.62
1022.6,49.509803921568626,-116.50980392156863,132.50980392156862,0.48,-13.02,3.87
1022.65,-45.490196078431374,-116.50980392156863,55.509803921568626,-2.73,-10.04,-1.12
1022.7,2.5098039215686274,-67.50980392156863,70.50980392156863,-1.86,-6.58,-3.4
1022.75,49.509803921568626,-84.50980392156863,86.50980392156863,-1.79,-6.26,-4.97
1022.8,18.50980392156863,-67.50980392156863,116.50980392156863,-5.22,-10.6,-14.49
1022.85,-45.490196078431374,-84.50980392156863,132.50980392156862,-26.6,7.8,-27.34
1022.9,-77.49019607843137,-165.50980392156862,70.50980392156863,-17.71,36.32,-33.6
1022.95,49.509803921568626,-116.50980392156863,-52.490196078431374,20.71,39.68,-45.99
1023.0,18.50980392156863,-84.50980392156863,-67.49019607843137,29.7,21.55,-45.12
1023.05,-315.4901960784314,62.490196078431374,116.50980392156863,-10.96,13.75,-21.98
1023.1,311.01960784313724,-182.50980392156862,86.50980392156863,1.42,-12.74,-5.22
1023.15,129.50980392156862,232.0,286.5098039215686,-15.89,0.31,-15.12
1023.2,2.5098039215686274,-312.5098039215686,193.50980392156862,2.82,35.76,-20.41
1023.25,311.01960784313724,-198.50980392156862,-236.49019607843138,-19.74,25.75,-17.96
1023.3,-93.49019607843137,215.0,193.50980392156862,-10.01,1.95,-11.66
1023.35,34.509803921568626,232.0,116.50980392156863,16.16,-7.87,4.01
1023.4,18.50980392156863,-312.5098039215686,-52.490196078431374,15.46,-18.41,20.64
1023.45,-45.490196078431374,313.0,-21.49019607843137,26.97,-32.27,28.58
1023.5,-45.490196078431374,-214.50980392156862,101.50980392156863,3.31,-25.44,21.09
1023.55,-204.49019607843138,264.0,101.50980392156863,-21.91,-3.01,13.92
1023.6,-93.49019607843137,232.0,24.50980392156863,-2.31,17.7,12.83
1023.65,49.509803921568626,-312.5098039215686,-98.49019607843137,25.71,26.56,14.23
1023.7,49.509803921568626,-296.5098039215686,-129.49019607843138,13.71,22.5,18.12
1023.75,-29.49019607843137,248.0,-52.490196078431374,5.38,-0.98,46.92
1023.8,-61.490196078431374,-67.50980392156863,9.509803921568627,38.91,-2.87,18.68
1023.85,295.01960784313724,62.490196078431374,-206.49019607843138,-4.94,0.66,20.25
1023.9,-156.49019607843138,166.0,9.509803921568627,0.83,-12.91,44.26
1023.95,256.5098039215686,-165.50980392156862,239.50980392156862,46.01,-36.43,40.97
1024.0,256.5098039215686,13.490196078431373,270.5098039215686,56.72,-38.57,17.56
1024.05,-156.49019607843138,-84.50980392156863,70.50980392156863,-4.9,-23.52,-0.84
1024.1,-299.4901960784314,-149.50980392156862,55.509803921568626,-3.57,-20.19,0.97
1024.15,65.50980392156863,-165.50980392156862,55.509803921568626,7.02,-19.42,4.75
1024.2,161.50980392156862,-165.50980392156862,70.50980392156863,12.52,-22.36,6.22
1024.25,65.50980392156863,-165.50980392156862,55.509803921568626,8.77,-18.69,7.23
1024.3,-29.49019607843137,-165.50980392156862,-21.49019607843137,13.39,-18.41,5.69
1024.35,2.5098039215686274,-133.50980392156862,39.509803921568626,10.66,-18.41,4.92
1024.4,34.509803921568626,-116.50980392156863,70.50980392156863,8.11,-13.75,-0.25
1024.45,-29.49019607843137,-133.50980392156862,55.509803921568626,-6.16,4.86,-10.33
1024.5,-29.49019607843137,-247.50980392156862,9.509803921568627,20.78,14.38,-21.81
1024.55,-29.49019607843137,-116.50980392156863,-36.490196078431374,-0.56,12.28,-22.05
1024.6,-315.4901960784314,-2.5098039215686274,132.50980392156862,-10.47,8.67,-8.05
1024.65,-315.4901960784314,313.0,116.50980392156863,2.02,-2.66,-4.59
1024.7,-45.490196078431374,313.0,193.50980392156862,-4.27,-5.49,-8.79
1024.75,-13.490196078431373,297.0,224.50980392156862,-16.35,13.4,-14.32
1024.8,-315.4901960784314,313.0,39.509803921568626,-14.18,14.94,-15.33
1024.85,-220.49019607843138,-312.5098039215686,24.50980392156863,-7.6,1.88,-11.24
1024.9,-13.490196078431373,264.0,147.50980392156862,-6.41,-6.37,-5.64
1024.95,-61.490196078431374,264.0,86.50980392156863,-0.67,-10.29,3.0
1025.0,-77.49019607843137,297.0,39.509803921568626,8.39,-12.56,12.13
1025.05,-45.490196078431374,281.0,9.509803921568627,7.34,-15.4,19.55
1025.1,-108.49019607843137,297.0,86.50980392156863,-10.61,-10.11,13.22
1025.15,-188.49019607843138,-312.5098039215686,132.50980392156862,-26.5,20.26,9.3
1025.2,-77.49019607843137,232.0,-37.490196078431374,2.65,48.96,5.17
1025.25,34.509803921568626,313.0,-190.49019607843138,8.07,50.11,7.06
1025.3,34.509803921568626,199.0,-67.49019607843137,-2.49,15.43,48.95
1025.35,-45.490196078431374,-263.5098039215686,39.509803921568626,49.2,-1.01,26.1
1025.4,295.01960784313724,-236.01960784313727,-98.49019607843137,-10.68,12.49,6.78
1025.45,216.01960784313727,3.0,-160.49019607843138,-30.77,1.74,27.04
1025.5,145.50980392156862,-247.50980392156862,193.50980392156862,24.98,-22.99,38.56
1025.55,-275.0,62.490196078431374,255.50980392156862,55.15,-30.38,21.06
1025.6,49.509803921568626,-133.50980392156862,193.50980392156862,-8.16,-9.31,-0.07
1025.65,311.01960784313724,-133.50980392156862,9.509803921568627,-24.61,-3.15,-7.53
1025.7,-108.49019607843137,-84.50980392156863,24.50980392156863,-9.07,-9.87,-3.29
1025.75,177.50980392156862,-149.50980392156862,86.50980392156863,-1.51,-12.81,-2.73
1025.8,97.50980392156863,-116.50980392156863,86.50980392156863,-7.91,-7.77,-8.65
1025.85,-45.490196078431374,-133.50980392156862,9.509803921568627,-7.56,-7.52,-11.2
1025.9,18.50980392156863,-116.50980392156863,24.50980392156863,-3.43,-12.04,-12.43
1025.95,34.509803921568626,-100.50980392156863,70.50980392156863,-3.71,-17.92,-15.86
1026.0,-45.490196078431374,-149.50980392156862,55.509803921568626,-19.74,-12.11,-20.55
1026.05,-61.490196078431374,-149.50980392156862,-6.490196078431373,-20.58,10.14,-20.65
1026.1,34.509803921568626,-165.50980392156862,-67.49019607843137,-11.45,27.5,-19.81
1026.15,129.50980392156862,-116.50980392156863,-98.49019607843137,21.3,22.6,-26.08
1026.2,97.50980392156863,-182.50980392156862,9.509803921568627,8.35,8.88,-31.92
1026.25,311.01960784313724,-133.50980392156862,-6.490196078431373,-13.37,1.25,-6.2
1026.3,-267.4901960784314,-35.509803921568626,-6.490196078431373,21.23,-16.76,-2.21
1026.35,18.50980392156863,313.0,101.50980392156863,10.49,-25.93,-2.66
1026.4,-45.490196078431374,281.0,239.50980392156862,-1.82,-16.31,-9.28
1026.45,-267.4901960784314,313.0,116.50980392156863,-13.76,-1.15,-10.92
1026.5,-252.49019607843138,313.0,24.50980392156863,-2.35,9.62,-12.32
1026.55,-188.49019607843138,313.0,-36.490196078431374,14.76,3.18,-11.27
1026.6,-45.490196078431374,248.0,70.50980392156863,16.54,-7.94,-5.71
1026.65,-45.490196078431374,232.0,116.50980392156863,20.22,-15.82,4.29
1026.7,-108.49019607843137,297.0,70.50980392156863,14.93,-21.31,11.92
1026.75,-77.49019607843137,215.0,86.50980392156863,-13.23,-22.33,16.47
1026.8,-140.49019607843138,232.0,147.50980392156862,-10.22,-16.38,13.85
1026.85,-172.49019607843138,264.0,116.50980392156863,-4.9,1.11,12.55
1026.9,-108.49019607843137,248.0,24.50980392156863,5.03,18.12,16.44
1026.95,-29.49019607843137,248.0,-36.490196078431374,20.85,29.67,20.29
1027.0,-77.49019607843137,232.0,-67.49019607843137,4.82,38.04,24.28
1027.05,-61.490196078431374,199.0,-52.490196078431374,20.32,40.49,33.94
1027.1,-61.490196078431374,297.0,-175.49019607843138,15.98,9.9,80.49
1027.15,-13.490196078431373,-133.50980392156862,-6.490196078431373,58.75,-10.88,43.6
1027.2,263.01960784313724,62.490196078431374,-37.490196078431374,-27.16,-3.39,39.99
1027.25,-140.49019607843138,150.0,147.50980392156862,-3.61,-25.09,54.06
1027.3,288.5098039215686,-84.50980392156863,316.5098039215686,58.68,-33.91,32.4
1027.35,272.5098039215686,95.49019607843137,163.50980392156862,25.85,-8.64,10.87
1027.4,-267.4901960784314,-51.509803921568626,-21.49019607843137,-28.0,2.09,-1.96
1027.45,-220.49019607843138,-149.50980392156862,86.50980392156863,-25.83,-1.71,-1.3
1027.5,145.50980392156862,-149.50980392156862,163.50980392156862,-1.47,-5.21,-5.01
1027.55,177.50980392156862,-35.509803921568626,55.509803921568626,-0.56,-2.87,-9.17
1027.6,-29.49019607843137,-100.50980392156863,-6.490196078431373,-14.95,-5.42,-15.58
1027.65,-61.490196078431374,-116.50980392156863,101.50980392156863,-18.62,-9.27,-15.82
1027.7,81.50980392156863,-100.50980392156863,101.50980392156863,-14.0,-7.98,-12.85
1027.75,97.50980392156863,-67.50980392156863,70.50980392156863,-12.08,-7.38,-18.31
1027.8,18.50980392156863,-116.50980392156863,39.509803921568626,-22.19,6.29,-25.38
1027.85,-61.490196078431374,-133.50980392156862,-6.490196078431373,-14.74,20.5,-30.59
1027.9,65.50980392156863,-84.50980392156863,-52.490196078431374,7.51,21.1,-42.98
1027.95,49.509803921568626,-149.50980392156862,9.509803921568627,2.16,10.14,-48.72
1028.0,-283.4901960784314,-51.509803921568626,-6.490196078431373,-12.57,4.12,-25.17
1028.05,-299.4901960784314,-100.50980392156863,24.50980392156863,7.16,-14.42,-8.47
1028.1,49.509803921568626,313.0,224.50980392156862,16.82,-20.65,-9.98
1028.15,65.50980392156863,297.0,286.5098039215686,-5.78,-5.67,-20.51
1028.2,-252.49019607843138,-296.5098039215686,178.50980392156862,-26.74,30.23,-24.64
1028.25,247.01960784313727,313.0,-52.490196078431374,-13.9,28.24,-21.81
1028.3,-93.49019607843137,297.0,86.50980392156863,-5.85,13.26,-16.7
1028.35,-13.490196078431373,199.0,178.50980392156862,0.76,0.0,-6.13
1028.4,-93.49019607843137,297.0,101.50980392156863,4.75,-8.08,4.71
1028.45,-124.49019607843137,313.0,9.509803921568627,8.7,-15.82,16.12
1028.5,-93.49019607843137,297.0,70.50980392156863,3.31,-11.3,20.22
1028.55,-156.49019607843138,248.0,55.509803921568626,5.24,-2.83,21.58
1028.6,-45.490196078431374,297.0,24.50980392156863,4.43,12.94,27.71
1028.65,49.509803921568626,232.0,-21.49019607843137,20.64,23.65,34.32
1028.7,81.50980392156863,264.0,-98.49019607843137,38.17,24.42,42.83
1028.75,18.50980392156863,297.0,-98.49019607843137,19.55,14.34,64.14
1028.8,-77.49019607843137,297.0,-113.49019607843137,44.44,-9.66,81.99
1028.85,-108.49019607843137,242.49019607843138,-52.490196078431374,61.03,-8.78,60.57
1028.9,-283.4901960784314,-133.50980392156862,-190.49019607843138,8.04,-33.39,46.68
1028.95,-13.490196078431373,-312.5098039215686,-279.0,2.33,-42.91,47.1
1029.0,145.50980392156862,-149.50980392156862,239.50980392156862,19.17,-37.76,46.64
1029.05,113.50980392156863,30.49019607843137,39.509803921568626,18.22,-25.06,39.75
1029.1,2.5098039215686274,-67.50980392156863,-52.490196078431374,-0.18,-27.79,34.5
1029.15,18.50980392156863,-67.50980392156863,163.50980392156862,-4.34,-30.1,36.07
1029.2,113.50980392156863,-18.50980392156863,132.50980392156862,-3.36,-30.34,36.56
1029.25,113.50980392156863,-67.50980392156863,86.50980392156863,-3.26,-29.12,36.28
1029.3,113.50980392156863,-2.5098039215686274,101.50980392156863,4.43,-27.26,31.84
1029.35,81.50980392156863,13.490196078431373,55.509803921568626,6.08,-27.54,28.13
1029.4,97.50980392156863,-18.50980392156863,55.509803921568626,14.34,-32.83,29.07
1029.45,113.50980392156863,13.490196078431373,55.509803921568626,25.47,-40.74,32.33
1029.5,129.50980392156862,13.490196078431373,55.509803921568626,35.76,-43.85,33.8
1029.55,113.50980392156863,46.490196078431374,70.50980392156863,39.96,-45.01,32.82
1029.6,97.50980392156863,46.490196078431374,70.50980392156863,42.34,-44.97,31.07
1029.65,113.50980392156863,30.49019607843137,86.50980392156863,44.58,-40.98,27.64
1029.7,113.50980392156863,62.490196078431374,101.50980392156863,48.92,-34.47,22.91
1029.75,129.50980392156862,30.49019607843137,86.50980392156863,47.34,-29.82,18.47
1029.8,97.50980392156863,62.490196078431374,116.50980392156863,44.4,-26.7,12.69
1029.85,113.50980392156863,-2.5098039215686274,132.50980392156862,43.53,-21.38,8.04
1029.9,81.50980392156863,13.490196078431373,70.50980392156863,49.27,-21.31,2.02
1029.95,81.50980392156863,-18.50980392156863,86.50980392156863,40.13,-21.14,-2.63
1030.0,2.5098039215686274,-18.50980392156863,70.50980392156863,34.32,-25.83,0.02
1030.05,81.50980392156863,-35.509803921568626,86.50980392156863,35.23,-29.85,3.14
1030.1,113.50980392156863,-165.50980392156862,86.50980392156863,42.02,-30.1,7.44
1030.15,2.5098039215686274,-133.50980392156862,39.509803921568626,43.11,-29.36,8.18
1030.2,-61.490196078431374,-214.50980392156862,24.50980392156863,36.77,-26.28,9.82
1030.25,-124.49019607843137,-247.50980392156862,55.509803921568626,34.46,-28.21,12.87
1030.3,-93.49019607843137,-280.5098039215686,9.509803921568627,36.32,-29.57,15.35
1030.35,-77.49019607843137,313.0,9.509803921568627,40.97,-30.8,18.78
1030.4,-93.49019607843137,-280.5098039215686,-36.490196078431374,43.49,-37.24,23.58
1030.45,-45.490196078431374,313.0,24.50980392156863,41.53,-43.29,31.56
1030.5,-45.490196078431374,-312.5098039215686,70.50980392156863,44.93,-44.76,39.96
1030.55,-29.49019607843137,-312.5098039215686,55.509803921568626,47.69,-37.06,47.31
1030.6,-61.490196078431374,-280.5098039215686,-21.49019607843137,48.57,-38.39,48.99
1030.65,-77.49019607843137,-312.5098039215686,86.50980392156863,34.78,-36.64,45.66
1030.7,-93.49019607843137,-312.5098039215686,132.50980392156862,30.86,-24.95,43.84
1030.75,-77.49019607843137,313.0,70.50980392156863,35.27,-16.38,42.27
1030.8,-29.49019607843137,-296.5098039215686,-6.490196078431373,36.49,-12.14,40.06
1030.85,-45.490196078431374,-312.5098039215686,55.509803921568626,37.58,-8.47,40.94
1030.9,-61.490196078431374,-247.50980392156862,-6.490196078431373,28.51,-11.23,53.85
1030.95,-61.490196078431374,-231.50980392156862,9.509803921568627,29.07,-6.09,58.68
1031.0,-140.49019607843138,-18.50980392156863,-52.490196078431374,34.64,-10.46,56.58
1031.05,18.50980392156863,-214.50980392156862,55.509803921568626,40.17,-24.57,53.4
1031.1,49.509803921568626,-67.50980392156863,178.50980392156862,30.02,-35.03,50.42
