rel_time,acc_x,acc_y,acc_z,gyro_x,gyro_y,gyro_z
1200.0,-131.0,183.0,-52.490196078431374,-99.63,45.92,102.32
1200.05,231.01960784313727,-94.0,294.52941176470586,-86.02,50.54,100.53
1200.1,129.50980392156862,-127.0,282.01960784313724,9.59,1.89,31.27
1200.15,4.490196078431373,270.5098039215686,-313.4901960784314,-25.36,17.85,57.83
1200.2,-306.0,-176.0,221.01960784313727,-7.69,2.45,38.9
1200.25,170.0,-241.0,-298.4901960784314,-6.92,1.93,35.92
1200.3,170.0,-290.0,236.01960784313727,-3.8,1.72,31.62
1200.35,106.0,-274.0,236.01960784313727,-2.05,1.86,15.03
1200.4,74.0,-241.0,-313.4901960784314,-5.94,4.59,5.16
1200.45,58.0,-225.0,282.01960784313724,4.8,-3.0,0.22
1200.5,170.0,-225.0,-313.4901960784314,-1.25,-6.08,2.04
1200.55,138.0,-307.0,298.01960784313724,4.27,-3.0,-0.54
1200.6,74.0,-274.0,-313.4901960784314,8.82,0.35,-3.37
1200.65,42.0,-209.0,252.01960784313727,12.36,-5.27,-7.43
1200.7,58.0,-274.0,-313.4901960784314,11.9,-10.52,-10.97
1200.75,122.0,-290.0,298.01960784313724,8.51,-14.58,-13.63
1200.8,58.0,-258.0,267.01960784313724,4.9,-15.21,-15.62
1200.85,90.0,319.5098039215686,252.01960784313727,4.03,-11.01,-14.08
1200.9,58.0,-290.0,-313.4901960784314,1.79,-8.53,-13.59
1200.95,58.0,-290.0,-283.4901960784314,3.01,-8.35,-11.0
1201.0,42.0,-307.0,313.01960784313724,5.71,-6.88,-5.96
1201.05,74.0,319.5098039215686,-313.4901960784314,4.97,-4.29,-0.78
1201.1,42.0,-307.0,298.01960784313724,6.06,-4.43,-0.89
1201.15,42.0,-307.0,-313.4901960784314,-0.86,-2.22,-1.59
1201.2,27.0,319.5098039215686,-298.4901960784314,8.3,-1.07,-1.62
1201.25,-36.0,-209.0,-298.4901960784314,0.63,1.41,-0.68
1201.3,-179.0,156.50980392156862,282.01960784313724,-1.67,1.13,1.52
1201.35,-98.01960784313725,-50.98039215686274,175.01960784313727,2.49,0.78,2.32
1201.4,-93.49019607843137,-198.50980392156862,-255.98039215686273,0.35,0.01,2.74
1201.45,184.01960784313727,-149.50980392156862,221.01960784313727,-0.23,0.18,2.99
1201.5,210.49019607843138,-83.98039215686275,239.50980392156862,0.11,0.25,3.13
1201.55,249.0,286.5098039215686,-298.4901960784314,-0.16,0.29,1.17
1201.6,-93.49019607843137,-165.50980392156862,-267.4901960784314,-0.23,0.57,1.06
1201.65,186.0,-154.49019607843138,252.01960784313727,-2.16,1.44,0.12
1201.7,51.490196078431374,-170.49019607843138,267.01960784313724,-0.93,2.11,0.08
1201.75,65.50980392156863,-165.50980392156862,-236.49019607843138,-2.79,3.16,-0.4
1201.8,-227.0,237.50980392156862,252.01960784313727,-3.87,2.32,-0.99
1201.85,-305.01960784313724,178.01960784313727,267.01960784313724,-1.14,0.32,-0.36
1201.9,-259.0,232.0,-283.4901960784314,-1.04,-0.23,1.52
1201.95,113.50980392156863,3.0,282.01960784313724,1.4,-0.79,0.29
1202.0,210.49019607843138,161.01960784313727,190.01960784313727,3.08,-2.12,0.4
1202.05,-20.0,3.0,-298.4901960784314,2.91,-2.26,1.83
1202.1,-29.49019607843137,248.0,-267.4901960784314,1.02,-1.07,0.82
1202.15,4.490196078431373,194.01960784313727,206.01960784313727,1.12,-1.56,-1.83
1202.2,-52.0,35.0,-267.4901960784314,3.15,-1.87,-0.64
1202.25,-13.490196078431373,183.0,-283.4901960784314,3.22,-1.7,0.61
1202.3,-91.50980392156863,-285.4901960784314,282.01960784313724,3.01,-2.64,-1.8
1202.35,-68.0,-127.0,-298.4901960784314,0.91,-1.14,0.36
1202.4,-68.0,-241.0,282.01960784313724,4.55,-2.57,0.71
1202.45,11.0,-307.0,282.01960784313724,0.67,-0.54,1.59
1202.5,27.0,319.5098039215686,-313.4901960784314,0.04,-0.82,0.15
1202.55,42.0,286.5098039215686,-313.4901960784314,-0.79,-0.72,0.36
1202.6,27.0,286.5098039215686,298.01960784313724,1.16,-0.44,0.92
1202.65,11.0,303.5098039215686,313.01960784313724,0.0,-1.07,0.43
1202.7,27.0,303.5098039215686,-313.4901960784314,-0.09,-1.03,1.03
1202.75,27.0,319.5098039215686,313.01960784313724,-0.16,-0.09,1.03
1202.8,27.0,303.5098039215686,282.01960784313724,0.11,-0.65,1.2
1202.85,-147.0,188.50980392156862,252.01960784313727,-0.13,0.36,1.62
1202.9,274.4901960784314,112.01960784313725,221.01960784313727,-0.9,0.5,2.25
1202.95,-20.0,-13.0,-267.4901960784314,-0.62,-0.51,2.46
1203.0,18.50980392156863,133.0,-298.4901960784314,0.07,-0.3,2.71
1203.05,-11.509803921568627,178.01960784313727,206.01960784313727,1.61,1.41,2.25
1203.1,186.0,-225.0,-313.4901960784314,1.54,1.27,1.13
1203.15,-108.49019607843137,-231.50980392156862,-221.49019607843138,1.4,1.48,1.2
1203.2,-266.5098039215686,292.01960784313724,206.01960784313727,0.07,1.79,0.68
1203.25,-202.50980392156862,90.50980392156863,-313.4901960784314,0.7,1.76,0.15
1203.3,-61.490196078431374,-133.50980392156862,-237.49019607843138,0.63,1.58,0.36
1203.35,90.0,-89.49019607843137,221.01960784313727,0.88,2.56,1.1
1203.4,99.49019607843137,-203.49019607843138,267.01960784313724,-0.37,2.46,2.04
1203.45,34.509803921568626,-182.50980392156862,-206.49019607843138,0.67,3.23,4.04
1203.5,-211.0,221.50980392156862,282.01960784313724,0.32,5.05,4.6
1203.55,290.4901960784314,243.01960784313727,252.01960784313727,34.51,0.81,19.61
1203.6,256.5098039215686,-312.5098039215686,-267.4901960784314,-20.39,7.08,18.98
1203.65,177.50980392156862,74.50980392156863,282.01960784313724,3.19,-1.77,18.35
1203.7,-305.01960784313724,96.01960784313725,190.01960784313727,-7.97,-0.72,18.81
1203.75,-163.0,35.0,-283.4901960784314,-0.62,0.71,19.54
1203.8,2.5098039215686274,68.0,-252.49019607843138,-0.69,1.55,12.58
1203.85,115.49019607843137,145.01960784313727,236.01960784313727,-3.7,4.31,4.88
1203.9,-163.0,-45.0,-283.4901960784314,15.47,-7.68,-2.53
1203.95,-36.0,-225.0,282.01960784313724,49.49,-6.21,-0.19
1204.0,42.0,303.5098039215686,113.01960784313725,74.41,-7.05,-0.96
1204.05,74.0,205.50980392156862,282.01960784313724,55.3,-7.82,-8.38
1204.1,74.0,172.50980392156862,159.01960784313727,11.97,-25.5,-17.55
1204.15,-36.0,41.509803921568626,39.509803921568626,-23.09,-21.65,-17.55
1204.2,-36.0,123.50980392156863,-83.49019607843137,-62.11,2.04,-22.69
1204.25,-68.0,303.5098039215686,-283.4901960784314,-57.46,-4.43,-28.15
1204.3,138.0,172.50980392156862,-283.4901960784314,-28.34,-6.6,-28.71
1204.35,-20.0,237.50980392156862,-67.49019607843137,6.44,-8.63,-32.95
1204.4,-52.0,-209.0,221.01960784313727,-2.51,-3.45,-27.94
1204.45,-315.4901960784314,-149.50980392156862,-129.49019607843138,11.8,-11.08,-22.87
1204.5,42.0,-187.49019607843138,282.01960784313724,7.63,-11.32,-23.01
1204.55,-273.01960784313724,-83.98039215686275,236.01960784313727,11.13,-9.12,-16.5
1204.6,51.490196078431374,-252.49019607843138,190.01960784313727,14.07,-10.1,-11.95
1204.65,-147.0,19.0,-190.49019607843138,1.61,-3.03,-7.36
1204.7,-283.4901960784314,13.490196078431373,-129.49019607843138,-5.52,3.65,0.4
1204.75,-156.49019607843138,84.0,-190.49019607843138,-0.09,-0.33,-0.01
1204.8,27.0,-187.49019607843138,313.01960784313724,1.12,-3.27,7.15
1204.85,306.4901960784314,-197.98039215686273,129.01960784313727,6.58,-2.33,4.81
1204.9,115.49019607843137,-317.4901960784314,206.01960784313727,-13.46,1.83,0.01
1204.95,-147.0,3.0,-298.4901960784314,-4.71,1.86,1.03
1205.0,-283.4901960784314,30.49019607843137,-113.49019607843137,-9.02,4.84,-2.99
1205.05,-108.49019607843137,133.0,-206.49019607843138,-2.02,5.01,-7.99
1205.1,138.0,-203.49019607843138,313.01960784313724,-8.77,9.11,-11.95
1205.15,-225.01960784313727,-148.98039215686273,190.01960784313727,-9.79,10.26,-10.09
1205.2,-75.50980392156863,-89.49019607843137,252.01960784313727,-13.85,8.48,-6.14
1205.25,304.5098039215686,248.0,-283.4901960784314,-9.44,5.22,-0.29
1205.3,247.01960784313727,62.490196078431374,-129.49019607843138,-3.77,0.15,-2.53
1205.35,224.50980392156862,-225.0,-283.4901960784314,-3.21,1.86,-0.75
1205.4,-11.509803921568627,96.01960784313725,205.01960784313727,-0.93,8.72,2.46
1205.45,-241.01960784313727,47.01960784313726,98.01960784313725,-44.26,37.39,18.42
1205.5,-290.0,-29.0,-236.49019607843138,-90.32,69.62,20.52
1205.55,90.0,-307.0,-83.49019607843137,-100.33,94.12,26.12
1205.6,249.0,-241.0,-175.49019607843138,-73.38,101.75,19.05
1205.65,170.0,-209.0,-129.49019607843138,-44.12,92.62,23.29
1205.7,138.0,-62.0,-193.98039215686273,-71.28,118.06,47.37
1205.75,106.0,19.0,190.01960784313727,-17.87,120.9,33.72
1205.8,67.49019607843137,35.0,-175.49019607843138,-38.98,140.92,18.91
1205.85,297.0,150.0,267.01960784313724,-24.24,144.35,0.85
1205.9,147.49019607843138,-13.0,286.5098039215686,-14.23,124.43,-25.42
1205.95,258.4901960784314,101.0,98.01960784313725,-43.25,100.7,-25.88
1206.0,147.49019607843138,52.0,163.50980392156862,-35.48,110.33,-38.55
1206.05,-305.01960784313724,117.0,-280.0,-82.38,132.03,-24.23
1206.1,-209.01960784313727,232.0,286.5098039215686,-143.7,195.94,6.28
1206.15,-66.01960784313725,183.0,178.50980392156862,-173.17,229.92,74.63
1206.2,-18.019607843137255,-198.50980392156862,70.50980392156863,-111.25,194.19,92.24
1206.25,242.49019607843138,-231.50980392156862,43.0,-99.07,159.75,102.21
1206.3,-98.01960784313725,-165.50980392156862,150.0,-111.53,115.05,89.61
1206.35,-82.01960784313725,-100.50980392156863,258.0,-109.78,118.52,86.36
1206.4,-177.01960784313727,-73.01960784313725,316.5098039215686,-41.46,30.46,10.16
1206.45,-202.50980392156862,-209.0,-246.50980392156862,-65.44,79.77,66.27
1206.5,-305.01960784313724,-45.0,-196.01960784313727,-48.88,2.6,57.17
1206.55,242.49019607843138,-301.4901960784314,110.98039215686275,-21.13,-15.63,-0.05
1206.6,99.49019607843137,286.5098039215686,0.49019607843137253,-14.97,6.48,33.51
1206.65,-82.01960784313725,41.509803921568626,76.49019607843137,-8.56,-15.38,18.35
1206.7,-170.50980392156862,-290.0,-15.509803921568627,12.43,-38.45,17.41
1206.75,83.49019607843137,205.50980392156862,-76.50980392156863,6.58,-9.29,23.08
1206.8,83.49019607843137,123.50980392156863,-138.50980392156862,-9.72,19.64,24.51
1206.85,-170.50980392156862,139.50980392156862,-246.50980392156862,-29.04,37.63,27.28
1206.9,-218.50980392156862,172.50980392156862,-307.5098039215686,-34.36,60.87,29.13
1206.95,-43.509803921568626,270.5098039215686,-215.50980392156862,-16.02,21.85,-4.74
1207.0,281.0,188.50980392156862,-138.50980392156862,-4.12,-12.34,-13.66
1207.05,-43.509803921568626,-23.49019607843137,15.490196078431373,-7.69,4.98,15.9
1207.1,67.49019607843137,-72.49019607843137,30.49019607843137,0.07,-5.93,13.1
1207.15,-170.50980392156862,41.509803921568626,-46.509803921568626,-8.6,-28.16,-8.9
1207.2,-170.50980392156862,123.50980392156863,30.49019607843137,21.74,-29.49,-4.46
1207.25,-59.509803921568626,41.509803921568626,-199.50980392156862,26.74,-16.01,-3.13
1207.3,-43.509803921568626,107.50980392156863,-153.50980392156862,12.08,-20.14,-12.09
1207.35,-59.509803921568626,90.50980392156863,-30.50980392156863,16.07,-22.94,-15.31
1207.4,67.49019607843137,-56.490196078431374,-199.50980392156862,4.66,1.41,0.61
1207.45,4.490196078431373,-56.490196078431374,-276.5098039215686,8.89,6.83,19.54
1207.5,51.490196078431374,-23.49019607843137,-246.50980392156862,5.57,1.9,6.07
1207.55,-170.50980392156862,74.50980392156863,-230.50980392156862,-2.51,2.35,-10.16
1207.6,-107.50980392156863,58.509803921568626,-169.50980392156862,-10.31,9.14,-14.22
1207.65,-75.50980392156863,-23.49019607843137,-184.50980392156862,-14.86,11.03,-13.14
1207.7,4.490196078431373,9.509803921568627,-107.50980392156863,-16.05,-1.8,-14.01
1207.75,-107.50980392156863,25.50980392156863,-138.50980392156862,-5.38,-4.25,-21.15
1207.8,-43.509803921568626,-7.490196078431373,-61.509803921568626,-1.91,2.04,-33.68
1207.85,-91.50980392156863,25.50980392156863,30.49019607843137,-8.63,3.3,-23.39
1207.9,-11.509803921568627,41.509803921568626,61.490196078431374,0.46,-7.44,-0.99
1207.95,19.49019607843137,74.50980392156863,15.490196078431373,-0.72,-15.63,2.08
1208.0,-139.50980392156862,172.50980392156862,-30.50980392156863,-2.51,-11.04,11.35
1208.05,-43.509803921568626,139.50980392156862,-15.509803921568627,13.13,-11.99,15.59
1208.1,-91.50980392156863,74.50980392156863,-76.50980392156863,16.56,-36.7,-6.24
1208.15,-139.50980392156862,58.509803921568626,-46.509803921568626,35.7,-40.02,-12.75
1208.2,-27.50980392156863,41.509803921568626,-184.50980392156862,34.62,-31.03,-19.89
1208.25,-107.50980392156863,156.50980392156862,-230.50980392156862,37.49,-40.44,-20.28
1208.3,-11.509803921568627,156.50980392156862,-261.5098039215686,9.1,-22.98,0.57
1208.35,-43.509803921568626,123.50980392156863,320.0,7.95,14.25,-6.21
1208.4,-43.509803921568626,221.50980392156862,258.0,6.93,7.5,-22.06
1208.45,-202.50980392156862,270.5098039215686,135.0,4.87,-7.47,-3.79
1208.5,-107.50980392156863,319.5098039215686,304.0,1.89,-3.24,-7.89
1208.55,67.49019607843137,286.5098039215686,-246.50980392156862,1.37,-5.58,-19.05
1208.6,-75.50980392156863,254.50980392156862,-230.50980392156862,9.94,-23.54,-26.93
1208.65,147.49019607843138,303.5098039215686,-215.50980392156862,21.35,-49.19,-30.53
1208.7,19.49019607843137,205.50980392156862,-292.5098039215686,15.75,-17.2,-10.97
1208.75,-289.01960784313724,156.50980392156862,-169.50980392156862,-1.21,-17.87,-5.4
1208.8,258.4901960784314,286.5098039215686,-199.50980392156862,-1.07,-17.83,-3.83
1208.85,-225.01960784313727,-45.0,-246.50980392156862,7.35,-18.15,-9.36
1208.9,242.49019607843138,319.5098039215686,-230.50980392156862,3.12,-10.87,-4.81
1208.95,-320.01960784313724,254.50980392156862,-276.5098039215686,1.16,-2.61,1.59
1209.0,-209.01960784313727,270.5098039215686,-199.50980392156862,-3.38,-3.59,10.23
1209.05,-193.01960784313727,286.5098039215686,-199.50980392156862,-0.62,3.75,18.56
1209.1,-177.01960784313727,188.50980392156862,-261.5098039215686,2.38,0.29,0.57
1209.15,-225.01960784313727,205.50980392156862,-199.50980392156862,9.7,-12.55,-11.98
1209.2,-82.01960784313725,254.50980392156862,-138.50980392156862,-2.4,-4.74,-1.1
1209.25,-3.019607843137255,270.5098039215686,-76.50980392156863,-2.86,4.0,6.28
1209.3,-66.01960784313725,254.50980392156862,-184.50980392156862,8.58,-6.42,7.12
1209.35,-241.01960784313727,237.50980392156862,-276.5098039215686,-2.47,2.98,8.73
1209.4,-177.01960784313727,-290.0,-138.50980392156862,-1.07,6.69,7.75
1209.45,-273.01960784313724,303.5098039215686,-230.50980392156862,1.26,4.59,9.22
1209.5,-289.01960784313724,270.5098039215686,-215.50980392156862,-4.36,7.01,9.11
1209.55,-305.01960784313724,286.5098039215686,-184.50980392156862,-0.44,5.85,10.27
1209.6,290.4901960784314,270.5098039215686,-261.5098039215686,-3.59,7.15,13.8
1209.65,210.49019607843138,270.5098039215686,-230.50980392156862,-17.1,14.67,13.38
1209.7,163.49019607843138,286.5098039215686,-215.50980392156862,-3.31,12.71,9.11
1209.75,51.490196078431374,254.50980392156862,304.0,-3.03,8.62,10.41
1209.8,4.490196078431373,270.5098039215686,-292.5098039215686,-0.86,12.19,10.55
1209.85,-75.50980392156863,-290.0,273.0,-10.77,12.43,24.55
1209.9,-154.50980392156862,-241.0,304.0,-7.83,23.25,40.23
1209.95,-234.50980392156862,319.5098039215686,196.0,-17.66,26.54,31.44
1210.0,-266.5098039215686,303.5098039215686,196.0,3.08,-12.93,-9.6
1210.05,-313.5098039215686,-176.0,-307.5098039215686,13.09,-45.06,-50.06
1210.1,-123.50980392156863,90.50980392156863,-246.50980392156862,10.5,-16.22,-30.5
1210.15,99.49019607843137,107.50980392156863,-246.50980392156862,4.9,22.02,1.38
1210.2,83.49019607843137,-274.0,273.0,-9.79,4.24,7.54
1210.25,-202.50980392156862,-176.0,227.0,10.78,-25.25,5.65
1210.3,-154.50980392156862,188.50980392156862,166.0,12.46,-26.37,-10.16
1210.35,51.490196078431374,221.50980392156862,-307.5098039215686,0.46,-12.72,-10.97
1210.4,4.490196078431373,237.50980392156862,-215.50980392156862,2.94,-13.67,-12.93
1210.45,163.49019607843138,221.50980392156862,320.0,5.99,-23.92,-16.74
1210.5,51.490196078431374,286.5098039215686,-307.5098039215686,7.35,-19.72,-10.16
1210.55,226.49019607843138,205.50980392156862,-261.5098039215686,-3.45,-6.42,-14.54
1210.6,242.49019607843138,303.5098039215686,-276.5098039215686,8.37,-13.0,-13.03
1210.65,274.4901960784314,270.5098039215686,289.0,9.63,-14.54,-11.25
1210.7,-289.01960784313724,254.50980392156862,320.0,1.89,-23.26,-9.08
1210.75,-320.01960784313724,286.5098039215686,289.0,9.42,-4.71,0.15
1210.8,-114.01960784313725,172.50980392156862,258.0,4.69,-8.24,-11.7
1210.85,274.4901960784314,-274.0,273.0,-1.25,-9.12,-4.53
1210.9,-114.01960784313725,-225.0,-169.50980392156862,2.35,-1.35,1.27
1210.95,-3.019607843137255,-307.0,-169.50980392156862,-4.57,1.23,-4.84
1211.0,-3.019607843137255,254.50980392156862,-215.50980392156862,5.88,-2.22,-4.39
1211.05,60.98039215686274,188.50980392156862,-276.5098039215686,-0.06,-5.13,-0.71
1211.1,28.980392156862745,286.5098039215686,-215.50980392156862,-4.19,3.93,5.79
1211.15,-34.01960784313726,254.50980392156862,-246.50980392156862,-2.51,-1.91,-3.27
1211.2,-209.01960784313727,319.5098039215686,320.0,-1.7,6.34,7.22
1211.25,-66.01960784313725,-307.0,-292.5098039215686,-3.98,8.93,14.75
1211.3,-193.01960784313727,303.5098039215686,-292.5098039215686,-8.04,11.77,13.73
1211.35,-305.01960784313724,319.5098039215686,-292.5098039215686,-2.26,11.91,18.81
1211.4,-289.01960784313724,286.5098039215686,289.0,-3.28,11.7,13.14
1211.45,290.4901960784314,237.50980392156862,289.0,-7.23,16.25,2.92
1211.5,210.49019607843138,286.5098039215686,320.0,-1.42,16.7,7.19
1211.55,115.49019607843137,254.50980392156862,212.0,-9.44,21.46,18.53
1211.6,4.490196078431373,-290.0,258.0,-0.97,12.57,20.77
1211.65,-218.50980392156862,-258.0,104.0,5.78,12.33,30.11
1211.7,-266.5098039215686,-209.0,104.0,-10.66,30.98,41.24
1211.75,-218.50980392156862,-241.0,196.0,-25.92,41.73,49.01
1211.8,-186.50980392156862,-307.0,273.0,-1.77,10.68,21.75
1211.85,-139.50980392156862,90.50980392156863,289.0,34.23,-40.55,-37.32
1211.9,-91.50980392156863,-72.49019607843137,-276.5098039215686,3.89,-19.93,-28.26
1211.95,4.490196078431373,237.50980392156862,-138.50980392156862,0.39,21.5,-7.47
1212.0,194.49019607843138,319.5098039215686,304.0,-7.83,19.22,-6.1
1212.05,-186.50980392156862,-225.0,196.0,6.23,-20.7,-9.25
1212.1,-282.5098039215686,-290.0,212.0,18.17,-27.53,-0.26
1212.15,99.49019607843137,188.50980392156862,258.0,5.08,2.14,0.29
1212.2,51.490196078431374,237.50980392156862,-261.5098039215686,-5.48,2.63,-2.78
1212.25,4.490196078431373,286.5098039215686,-307.5098039215686,3.19,-10.48,-4.56
1212.3,67.49019607843137,221.50980392156862,243.0,-2.12,-18.29,-12.26
1212.35,131.49019607843138,188.50980392156862,-292.5098039215686,-0.3,-6.42,-11.28
1212.4,178.49019607843138,221.50980392156862,304.0,5.22,-9.22,-8.59
1212.45,178.49019607843138,172.50980392156862,-307.5098039215686,5.11,-14.75,-17.62
1212.5,258.4901960784314,221.50980392156862,-261.5098039215686,3.57,-16.96,-20.52
1212.55,290.4901960784314,237.50980392156862,-276.5098039215686,0.74,-15.91,-23.11
1212.6,-305.01960784313724,303.5098039215686,-276.5098039215686,3.99,-12.62,-9.74
1212.65,-161.01960784313727,254.50980392156862,320.0,-4.29,4.14,3.09
1212.7,-66.01960784313725,286.5098039215686,-230.50980392156862,-7.23,8.2,10.55
1212.75,-114.01960784313725,188.50980392156862,-276.5098039215686,11.66,-1.24,7.57
1212.8,-18.019607843137255,58.509803921568626,-261.5098039215686,-0.34,-13.18,-13.56
1212.85,-66.01960784313725,188.50980392156862,-123.50980392156863,1.26,1.86,-5.79
1212.9,171.98039215686273,107.50980392156863,-138.50980392156862,-3.28,-0.16,-13.77
1212.95,-193.01960784313727,254.50980392156862,-184.50980392156862,5.29,-7.61,-5.58
1213.0,-130.01960784313727,205.50980392156862,-292.5098039215686,-6.39,-1.1,-2.71
1213.05,-209.01960784313727,-307.0,-307.5098039215686,-1.14,6.24,2.99
1213.1,-209.01960784313727,270.5098039215686,289.0,-2.86,3.89,4.32
1213.15,-289.01960784313724,303.5098039215686,304.0,0.32,9.0,13.17
1213.2,-225.01960784313727,319.5098039215686,-276.5098039215686,-6.57,13.06,11.39
1213.25,-289.01960784313724,-307.0,-261.5098039215686,-6.71,12.5,14.01
1213.3,290.4901960784314,303.5098039215686,-307.5098039215686,-8.46,25.77,25.0
1213.35,258.4901960784314,-307.0,304.0,-14.79,27.8,20.1
1213.4,19.49019607843137,-274.0,258.0,-4.96,20.97,24.44
1213.45,-139.50980392156862,-258.0,166.0,0.0,19.36,26.23
1213.5,-250.50980392156862,-209.0,135.0,-15.32,25.17,35.36
1213.55,281.0,-143.0,120.0,-19.27,42.6,40.37
1213.6,-266.5098039215686,-225.0,212.0,10.71,-3.48,9.53
1213.65,-202.50980392156862,139.50980392156862,273.0,26.25,-59.69,-55.63
1213.7,313.0,-7.490196078431373,-153.50980392156862,13.58,-44.12,-27.21
1213.75,115.49019607843137,90.50980392156863,-138.50980392156862,-2.89,22.62,5.44
1213.8,131.49019607843138,-241.0,-292.5098039215686,-10.42,20.87,6.14
1213.85,-313.5098039215686,-160.0,150.0,16.1,-42.96,-2.22
1213.9,-154.50980392156862,-307.0,181.0,18.34,-39.57,-12.51
1213.95,4.490196078431373,205.50980392156862,258.0,-3.84,-13.88,-16.92
1214.0,226.49019607843138,-241.0,-230.50980392156862,4.48,-9.68,-4.98
1214.05,115.49019607843137,188.50980392156862,196.0,4.97,-10.48,-9.99
1214.1,258.4901960784314,188.50980392156862,304.0,9.38,-17.59,-16.43
1214.15,194.49019607843138,205.50980392156862,-292.5098039215686,3.12,-14.65,-23.25
1214.2,-305.01960784313724,303.5098039215686,-292.5098039215686,2.56,-20.95,-23.99
1214.25,242.49019607843138,-307.0,289.0,10.99,-8.84,-7.19
1214.3,-177.01960784313727,303.5098039215686,243.0,6.16,-0.72,4.04
1214.35,-241.01960784313727,-258.0,-307.5098039215686,1.51,-7.65,-5.26
1214.4,-209.01960784313727,-307.0,320.0,4.34,-10.69,-12.47
1214.45,306.4901960784314,319.5098039215686,-307.5098039215686,10.36,-7.05,0.54
1214.5,-18.019607843137255,270.5098039215686,-246.50980392156862,4.62,-6.91,-9.43
1214.55,-50.01960784313726,188.50980392156862,-184.50980392156862,2.17,-4.99,-2.18
1214.6,12.980392156862745,172.50980392156862,-184.50980392156862,-5.1,4.03,2.29
1214.65,92.98039215686275,107.50980392156863,-230.50980392156862,0.04,-7.75,-11.7
1214.7,-82.01960784313725,172.50980392156862,320.0,2.8,-2.61,-7.96
1214.75,-82.01960784313725,270.5098039215686,304.0,-8.18,13.66,-2.67
1214.8,-209.01960784313727,303.5098039215686,289.0,-4.12,11.49,2.18
1214.85,-241.01960784313727,303.5098039215686,212.0,1.75,9.49,8.69
1214.9,-209.01960784313727,-307.0,273.0,1.3,7.39,12.05
1214.95,-209.01960784313727,-258.0,320.0,-4.78,12.96,13.49
1215.0,-257.01960784313724,-274.0,320.0,-1.11,14.99,14.15
1215.05,-273.01960784313724,286.5098039215686,273.0,-0.48,18.52,13.7
1215.1,210.49019607843138,303.5098039215686,304.0,-4.26,23.63,26.75
1215.15,226.49019607843138,303.5098039215686,273.0,-3.24,21.46,24.37
1215.2,-107.50980392156863,-258.0,150.0,6.41,11.14,26.89
1215.25,-234.50980392156862,-241.0,43.0,19.01,-18.53,29.62
1215.3,154.0,-225.0,-3.0,-6.74,34.59,23.25
1215.35,-282.5098039215686,-45.0,181.0,-27.64,65.74,38.97
1215.4,-107.50980392156863,-160.0,-276.5098039215686,-1.74,15.37,-14.22
1215.45,-107.50980392156863,41.509803921568626,181.0,15.16,-90.28,-81.04
1215.5,170.0,-89.49019607843137,-138.50980392156862,-0.41,-27.21,-14.61
1215.55,-225.01960784313727,319.5098039215686,-169.50980392156862,-30.61,49.39,17.72
1215.6,-75.50980392156863,-78.0,227.0,-21.62,22.16,14.4
1215.65,-266.5098039215686,-209.0,89.0,31.15,-58.64,8.87
1215.7,-123.50980392156863,123.50980392156863,43.0,10.12,-22.66,-1.66
1215.75,258.4901960784314,-307.0,-153.50980392156862,-7.93,17.75,4.04
1215.8,83.49019607843137,303.5098039215686,-307.5098039215686,3.82,-29.52,-13.07
1215.85,35.490196078431374,221.50980392156862,258.0,8.47,-33.93,-15.62
1215.9,242.49019607843138,156.50980392156862,289.0,-6.08,-5.2,-21.71
1215.95,258.4901960784314,205.50980392156862,320.0,-10.87,-2.92,-30.39
1216.0,-273.01960784313724,286.5098039215686,-276.5098039215686,-8.56,-21.89,-29.17
1216.05,242.49019607843138,303.5098039215686,304.0,4.9,-3.06,13.1
1216.1,-114.01960784313725,270.5098039215686,273.0,-6.85,5.89,11.56
1216.15,-225.01960784313727,-274.0,-261.5098039215686,5.5,-4.85,4.32
1216.2,-209.01960784313727,188.50980392156862,258.0,-1.25,-4.71,5.16
1216.25,-34.01960784313726,156.50980392156862,-261.5098039215686,-3.59,-2.68,-6.63
1216.3,-3.019607843137255,123.50980392156863,-215.50980392156862,-4.01,-10.94,-7.33
1216.35,28.980392156862745,107.50980392156863,-199.50980392156862,-3.0,-4.36,-5.3
1216.4,92.98039215686275,107.50980392156863,-292.5098039215686,-0.48,-6.74,-12.02
1216.45,-193.01960784313727,205.50980392156862,304.0,-0.27,2.18,-4.7
1216.5,-82.01960784313725,270.5098039215686,304.0,-0.02,2.07,-4.35
1216.55,-257.01960784313724,286.5098039215686,273.0,-1.91,0.85,1.48
1216.6,-193.01960784313727,-307.0,289.0,-4.54,6.66,9.15
1216.65,-161.01960784313727,270.5098039215686,258.0,-4.4,13.52,16.15
1216.7,-257.01960784313724,286.5098039215686,289.0,-6.04,16.39,22.69
1216.75,-289.01960784313724,303.5098039215686,304.0,-0.3,17.47,16.39
1216.8,178.49019607843138,254.50980392156862,227.0,-5.97,16.39,17.37
1216.85,35.490196078431374,-307.0,212.0,16.8,23.67,22.9
1216.9,-91.50980392156863,270.5098039215686,73.0,1.4,24.68,21.22
1216.95,297.0,-127.0,212.0,2.98,33.08,29.76
1217.0,297.0,-176.0,58.0,-13.53,46.17,43.13
1217.05,233.0,-143.0,150.0,-14.97,52.93,44.6
1217.1,-107.50980392156863,237.50980392156862,304.0,-6.36,-33.13,-28.12
1217.15,-107.50980392156863,270.5098039215686,-46.509803921568626,22.16,-93.78,-57.83
1217.2,-282.5098039215686,-89.49019607843137,320.0,14.28,-14.37,6.77
1217.25,306.4901960784314,25.50980392156863,-276.5098039215686,-6.04,48.66,29.66
1217.3,-186.50980392156862,-160.0,-307.5098039215686,-6.25,7.78,6.52
1217.35,-266.5098039215686,-307.0,258.0,3.61,-40.76,-24.23
1217.4,-218.50980392156862,123.50980392156863,196.0,9.56,-34.6,-27.49
1217.45,35.490196078431374,237.50980392156862,320.0,-5.1,-9.05,-10.55
1217.5,131.49019607843138,286.5098039215686,-292.5098039215686,1.58,-13.18,-22.45
1217.55,147.49019607843138,172.50980392156862,258.0,5.85,-21.05,-22.87
1217.6,163.49019607843138,221.50980392156862,-276.5098039215686,-8.14,5.99,-6.38
1217.65,-257.01960784313724,270.5098039215686,-184.50980392156862,-4.43,5.29,5.68
1217.7,-273.01960784313724,188.50980392156862,-292.5098039215686,-2.16,-14.54,-9.74
1217.75,258.4901960784314,205.50980392156862,304.0,-2.12,-4.08,-6.77
1217.8,-241.01960784313727,205.50980392156862,-307.5098039215686,0.39,1.86,-7.61
1217.85,-241.01960784313727,172.50980392156862,289.0,1.16,-3.27,-8.24
1217.9,-241.01960784313727,172.50980392156862,-276.5098039215686,2.98,-1.52,12.86
1217.95,-34.01960784313726,107.50980392156863,-169.50980392156862,-4.19,-4.25,5.72
1218.0,-34.01960784313726,58.509803921568626,-153.50980392156862,-0.09,-16.01,-20.77
1218.05,-82.01960784313725,25.50980392156863,-199.50980392156862,3.12,-7.44,-19.44
1218.1,76.98039215686275,90.50980392156863,-215.50980392156862,-6.81,-0.02,-13.8
1218.15,-3.019607843137255,172.50980392156862,-261.5098039215686,-4.4,-4.92,-6.21
1218.2,-98.01960784313725,221.50980392156862,320.0,-5.87,2.04,1.87
1218.25,-209.01960784313727,319.5098039215686,304.0,-5.52,8.55,5.61
1218.3,-273.01960784313724,221.50980392156862,227.0,-2.23,6.17,4.98
1218.35,-257.01960784313724,254.50980392156862,273.0,-0.69,2.88,1.9
1218.4,-273.01960784313724,270.5098039215686,273.0,-6.32,5.43,-0.57
1218.45,274.4901960784314,303.5098039215686,304.0,-5.73,12.61,4.04
1218.5,-320.01960784313724,303.5098039215686,289.0,-10.24,17.54,5.65
1218.55,163.49019607843138,303.5098039215686,243.0,2.28,18.14,10.48
1218.6,67.49019607843137,303.5098039215686,181.0,0.14,14.88,13.77
1218.65,-139.50980392156862,-209.0,104.0,2.84,26.96,31.83
1218.7,-170.50980392156862,-209.0,104.0,-11.15,42.11,62.07
1218.75,-282.5098039215686,-176.0,135.0,-11.19,42.29,63.78
1218.8,-218.50980392156862,-192.0,166.0,0.7,-9.78,7.78
1218.85,-218.50980392156862,172.50980392156862,273.0,34.55,-71.7,-67.04
1218.9,281.0,-154.49019607843138,-184.50980392156862,20.3,-38.38,-21.54
1218.95,210.49019607843138,221.50980392156862,-138.50980392156862,-3.98,13.31,18.95
1219.0,147.49019607843138,319.5098039215686,-276.5098039215686,-14.13,10.93,14.05
1219.05,-170.50980392156862,-258.0,181.0,9.17,-14.37,20.91
1219.1,-139.50980392156862,172.50980392156862,150.0,-10.31,-11.04,-9.5
1219.15,-91.50980392156863,319.5098039215686,-199.50980392156862,3.43,-11.32,-18.46
1219.2,-123.50980392156863,139.50980392156862,258.0,-2.65,-21.79,-30.22
1219.25,131.49019607843138,156.50980392156862,320.0,1.65,-24.24,-36.76
1219.3,99.49019607843137,123.50980392156863,243.0,-0.72,-14.19,-10.58
1219.35,306.4901960784314,205.50980392156862,304.0,10.99,-1.38,12.65
1219.4,-320.01960784313724,107.50980392156863,212.0,-0.44,-7.09,0.85
1219.45,226.49019607843138,188.50980392156862,273.0,-2.79,-9.68,-10.16
1219.5,194.49019607843138,156.50980392156862,243.0,-2.09,5.29,-7.05
1219.55,-273.01960784313724,172.50980392156862,243.0,-7.3,7.18,-3.41
1219.6,-305.01960784313724,286.5098039215686,-292.5098039215686,-2.75,1.86,2.15
1219.65,-225.01960784313727,237.50980392156862,-307.5098039215686,-4.47,23.6,14.26
1219.7,-82.01960784313725,156.50980392156862,-246.50980392156862,3.33,9.04,3.83
1219.75,-66.01960784313725,58.509803921568626,-199.50980392156862,-2.58,0.92,-17.3
1219.8,28.980392156862745,41.509803921568626,-30.50980392156863,2.66,-10.34,-8.41
1219.85,76.98039215686275,-72.49019607843137,-138.50980392156862,4.1,-1.21,-4.04
1219.9,-34.01960784313726,41.509803921568626,-215.50980392156862,1.47,-4.85,-12.54
1219.95,-257.01960784313724,188.50980392156862,304.0,2.45,0.01,-6.45
1220.0,-114.01960784313725,254.50980392156862,-261.5098039215686,-3.0,3.54,-0.22
1220.05,-241.01960784313727,254.50980392156862,-292.5098039215686,-0.27,3.89,0.33
1220.1,-320.01960784313724,221.50980392156862,320.0,-9.89,10.89,11.21
1220.15,-161.01960784313727,286.5098039215686,-276.5098039215686,-0.51,13.8,15.1
1220.2,-320.01960784313724,221.50980392156862,320.0,1.23,6.41,16.53
1220.25,194.49019607843138,205.50980392156862,304.0,-1.63,18.7,17.83
1220.3,290.4901960784314,270.5098039215686,304.0,-7.06,30.67,27.14
1220.35,19.49019607843137,-307.0,320.0,0.95,34.69,30.39
1220.4,-107.50980392156863,-307.0,166.0,7.07,25.17,30.46
1220.45,249.0,-209.0,135.0,-5.45,30.81,34.98
1220.5,154.0,-143.0,150.0,-17.21,41.06,40.96
1220.55,249.0,-143.0,150.0,3.19,22.55,29.06
1220.6,-27.50980392156863,41.509803921568626,-246.50980392156862,15.12,-75.79,-50.24
1220.65,265.0,90.50980392156863,-122.50980392156863,18.9,-72.85,-57.13
1220.7,35.490196078431374,58.509803921568626,-153.50980392156862,-3.66,16.39,4.28
1220.75,-320.01960784313724,221.50980392156862,320.0,-13.08,31.19,14.15
1220.8,-234.50980392156862,-143.0,212.0,6.23,-12.44,3.09
1220.85,-202.50980392156862,286.5098039215686,166.0,4.38,-32.46,-13.49
1220.9,-75.50980392156863,303.5098039215686,289.0,-2.61,-9.12,-12.26
1220.95,99.49019607843137,221.50980392156862,273.0,-1.7,-11.99,-8.17
1221.0,83.49019607843137,205.50980392156862,304.0,5.11,-22.07,-3.02
1221.05,163.49019607843138,139.50980392156862,273.0,3.96,-13.07,-10.09
1221.1,258.4901960784314,188.50980392156862,-292.5098039215686,1.79,-10.13,-12.79
1221.15,178.49019607843138,205.50980392156862,320.0,1.23,4.7,13.45
1221.2,306.4901960784314,156.50980392156862,-307.5098039215686,-1.28,10.54,23.46
1221.25,258.4901960784314,172.50980392156862,304.0,-2.4,5.08,-2.95
1221.3,163.49019607843138,188.50980392156862,289.0,-1.77,1.55,-10.97
1221.35,-320.01960784313724,156.50980392156862,-307.5098039215686,-4.05,13.48,-2.43
1221.4,-241.01960784313727,123.50980392156863,-230.50980392156862,-6.95,23.07,13.24
1221.45,-177.01960784313727,139.50980392156862,-138.50980392156862,-9.61,19.96,8.52
1221.5,-114.01960784313725,-40.490196078431374,-184.50980392156862,-1.11,-15.14,-20.24
1221.55,-130.01960784313727,-72.49019607843137,-107.50980392156863,-1.77,-22.35,-25.53
1221.6,-18.019607843137255,9.509803921568627,-76.50980392156863,-0.93,-13.77,-7.85
1221.65,-3.019607843137255,25.50980392156863,-169.50980392156862,2.63,-7.33,-13.35
1221.7,-130.01960784313727,188.50980392156862,-215.50980392156862,0.91,-6.84,-11.56
1221.75,-209.01960784313727,188.50980392156862,-292.5098039215686,1.82,-3.45,-3.76
1221.8,-305.01960784313724,221.50980392156862,-261.5098039215686,-1.53,3.44,-8.34
1221.85,-305.01960784313724,237.50980392156862,-230.50980392156862,-5.41,-0.09,-11.25
1221.9,-305.01960784313724,172.50980392156862,-292.5098039215686,-3.45,0.29,-8.13
1221.95,306.4901960784314,254.50980392156862,-276.5098039215686,-4.96,2.7,1.24
1222.0,290.4901960784314,286.5098039215686,-246.50980392156862,-10.45,23.74,12.89
1222.05,-289.01960784313724,221.50980392156862,-292.5098039215686,-19.62,43.34,32.67
1222.1,163.49019607843138,-274.0,-261.5098039215686,-4.08,39.17,60.18
1222.15,51.490196078431374,-307.0,196.0,5.57,27.34,59.2
1222.2,-202.50980392156862,-274.0,89.0,-1.53,18.87,39.18
1222.25,170.0,-160.0,120.0,-19.34,30.04,54.23
1222.3,265.0,-160.0,181.0,-14.65,25.66,45.09
1222.35,-202.50980392156862,286.5098039215686,227.0,2.87,-30.75,-12.68
1222.4,-186.50980392156862,107.50980392156863,304.0,0.42,-38.41,-25.49
1222.45,-11.509803921568627,-154.49019607843138,-15.509803921568627,-4.08,26.64,21.68
1222.5,-161.01960784313727,-154.49019607843138,-138.50980392156862,-10.42,26.22,14.54
1222.55,-139.50980392156862,172.50980392156862,-261.5098039215686,-0.09,-4.32,10.27
1222.6,-59.509803921568626,90.50980392156863,304.0,2.35,-3.13,0.54
1222.65,-11.509803921568627,58.509803921568626,-276.5098039215686,0.04,-4.01,-16.18
1222.7,-91.50980392156863,41.509803921568626,-122.50980392156863,2.94,-2.89,0.54
1222.75,147.49019607843138,9.509803921568627,-184.50980392156862,-0.55,5.19,4.25
1222.8,83.49019607843137,-7.490196078431373,-215.50980392156862,-2.75,1.62,-2.57
1222.85,-11.509803921568627,41.509803921568626,-230.50980392156862,2.7,-8.0,-8.41
1222.9,-75.50980392156863,41.509803921568626,-246.50980392156862,3.47,-11.67,-14.33
1222.95,-75.50980392156863,74.50980392156863,-230.50980392156862,2.73,-12.41,-19.16
1223.0,-59.509803921568626,74.50980392156863,-261.5098039215686,1.02,-8.21,-15.13
1223.05,-59.509803921568626,156.50980392156862,-307.5098039215686,3.47,-7.86,-19.33
1223.1,-170.50980392156862,205.50980392156862,273.0,3.92,-16.26,-25.7
1223.15,-186.50980392156862,286.5098039215686,227.0,14.74,-18.04,-9.32
1223.2,-91.50980392156863,221.50980392156862,212.0,10.96,-12.48,-5.23
1223.25,-11.509803921568627,270.5098039215686,-292.5098039215686,3.54,-18.32,-7.75
1223.3,-75.50980392156863,172.50980392156862,-307.5098039215686,-1.6,-20.42,-14.57
1223.35,115.49019607843137,139.50980392156862,-230.50980392156862,-8.49,-5.76,-18.39
1223.4,115.49019607843137,172.50980392156862,-261.5098039215686,-1.21,0.22,-2.53
1223.45,178.49019607843138,107.50980392156863,-307.5098039215686,4.48,-14.93,-13.42
1223.5,178.49019607843138,188.50980392156862,-307.5098039215686,-0.3,-19.79,-20.17
1223.55,163.49019607843138,188.50980392156862,-261.5098039215686,-1.0,-11.71,-4.0
1223.6,-305.01960784313724,156.50980392156862,-230.50980392156862,-3.45,-4.99,1.83
1223.65,-320.01960784313724,237.50980392156862,-215.50980392156862,-5.66,-6.28,-0.19
1223.7,-320.01960784313724,221.50980392156862,-292.5098039215686,4.17,1.3,4.67
1223.75,-305.01960784313724,107.50980392156863,273.0,-2.86,-6.74,4.35
1223.8,-241.01960784313727,139.50980392156862,-261.5098039215686,-4.26,-0.02,1.62
1223.85,-66.01960784313725,74.50980392156863,-215.50980392156862,-12.62,1.9,-3.23
1223.9,-18.019607843137255,-7.490196078431373,-153.50980392156862,0.6,3.61,0.12
1223.95,-82.01960784313725,-40.490196078431374,-261.5098039215686,3.89,-6.07,-8.66
1224.0,-146.01960784313727,9.509803921568627,-307.5098039215686,-1.0,-3.24,-13.66
1224.05,-177.01960784313727,107.50980392156863,-292.5098039215686,-2.16,-2.12,-2.6
1224.1,-130.01960784313727,74.50980392156863,-307.5098039215686,-3.49,5.01,1.87
1224.15,-257.01960784313724,156.50980392156862,-307.5098039215686,5.64,1.93,2.18
1224.2,-305.01960784313724,156.50980392156862,-292.5098039215686,-8.42,5.99,1.97
1224.25,-305.01960784313724,172.50980392156862,-292.5098039215686,6.2,1.51,2.04
1224.3,226.49019607843138,123.50980392156863,227.0,5.95,0.74,4.7
1224.35,274.4901960784314,139.50980392156862,273.0,0.25,3.3,9.25
1224.4,274.4901960784314,221.50980392156862,320.0,-15.42,16.56,19.33
1224.45,210.49019607843138,254.50980392156862,304.0,-6.15,30.6,23.53
1224.5,19.49019607843137,286.5098039215686,181.0,1.96,39.14,24.69
1224.55,-123.50980392156863,270.5098039215686,166.0,6.2,30.49,7.43
1224.6,233.0,-209.0,89.0,-16.16,42.29,38.9
1224.65,-250.50980392156862,-62.0,196.0,-2.72,40.15,57.87
1224.7,-186.50980392156862,270.5098039215686,73.0,14.35,-5.65,4.56
1224.75,-234.50980392156862,9.509803921568627,258.0,-2.65,-36.73,-54.75
1224.8,-186.50980392156862,-154.49019607843138,-46.509803921568626,-2.51,25.63,7.54
1224.85,-82.01960784313725,-23.49019607843137,-61.509803921568626,-10.31,23.81,23.08
1224.9,35.490196078431374,254.50980392156862,-138.50980392156862,2.35,-10.48,8.94
1224.95,-59.509803921568626,107.50980392156863,273.0,9.87,-6.35,5.82
1225.0,67.49019607843137,41.509803921568626,-292.5098039215686,-4.47,4.1,-11.67
1225.05,-75.50980392156863,107.50980392156863,-92.50980392156863,1.44,-7.3,-20.21
1225.1,19.49019607843137,25.50980392156863,-199.50980392156862,6.58,-13.91,-14.75
1225.15,19.49019607843137,58.509803921568626,-261.5098039215686,1.96,-11.74,-17.86
1225.2,-27.50980392156863,156.50980392156862,-215.50980392156862,0.0,-13.39,-22.9
1225.25,-123.50980392156863,205.50980392156862,-246.50980392156862,0.0,-12.76,-16.5
1225.3,-75.50980392156863,270.5098039215686,243.0,9.14,-9.47,-11.21
1225.35,-91.50980392156863,270.5098039215686,227.0,3.57,-10.94,-12.26
1225.4,-27.50980392156863,-290.0,-292.5098039215686,43.79,-18.71,-14.15
1225.45,-27.50980392156863,254.50980392156862,243.0,9.87,-19.72,3.44
1225.5,131.49019607843138,286.5098039215686,-230.50980392156862,3.47,-2.78,7.22
1225.55,99.49019607843137,237.50980392156862,-246.50980392156862,8.37,-9.61,0.26
1225.6,115.49019607843137,237.50980392156862,-246.50980392156862,-14.72,-20.11,-12.75
1225.65,99.49019607843137,303.5098039215686,-215.50980392156862,-6.18,-12.44,6.84
1225.7,226.49019607843138,-7.490196078431373,243.0,1.61,-8.8,-3.3
1225.75,210.49019607843138,172.50980392156862,304.0,8.02,-12.97,-21.99
1225.8,147.49019607843138,188.50980392156862,258.0,-4.54,-11.67,-26.05
1225.85,274.4901960784314,237.50980392156862,-261.5098039215686,4.87,-6.46,4.88
1225.9,-209.01960784313727,139.50980392156862,320.0,1.16,2.95,14.54
1225.95,-114.01960784313725,41.509803921568626,-215.50980392156862,-4.36,3.61,2.99
1226.0,-18.019607843137255,107.50980392156863,-215.50980392156862,8.26,-23.33,-16.85
1226.05,-241.01960784313727,41.509803921568626,-292.5098039215686,5.18,-9.36,-0.47
1226.1,76.98039215686275,-7.490196078431373,-169.50980392156862,1.82,-8.73,0.12
1226.15,28.980392156862745,25.50980392156863,-230.50980392156862,-7.79,1.86,-1.17
1226.2,-50.01960784313726,172.50980392156862,-276.5098039215686,13.2,4.07,1.87
1226.25,-114.01960784313725,107.50980392156863,304.0,1.19,1.44,-2.71
1226.3,-320.01960784313724,-274.0,-153.50980392156862,-7.62,6.55,4.04
1226.35,-146.01960784313727,270.5098039215686,289.0,-6.39,7.95,5.02
1226.4,-305.01960784313724,205.50980392156862,273.0,11.2,8.97,11.81
1226.45,-320.01960784313724,221.50980392156862,258.0,-12.83,14.43,10.44
1226.5,306.4901960784314,-307.0,-246.50980392156862,-1.04,15.27,2.88
1226.55,226.49019607843138,205.50980392156862,-292.5098039215686,7.21,15.58,6.8
1226.6,242.49019607843138,286.5098039215686,-276.5098039215686,-4.12,19.99,9.01
1226.65,115.49019607843137,286.5098039215686,320.0,9.94,14.15,18.67
1226.7,-154.50980392156862,-290.0,181.0,27.62,1.3,39.88
1226.75,-282.5098039215686,-274.0,43.0,10.71,25.91,42.15
1226.8,265.0,-176.0,73.0,-23.37,48.41,46.0
1226.85,249.0,-78.0,212.0,-12.45,40.01,26.51
1226.9,-123.50980392156863,-7.490196078431373,-230.50980392156862,1.68,-46.04,-26.23
1226.95,-123.50980392156863,74.50980392156863,-107.50980392156863,22.96,-39.81,-30.53
1227.0,19.49019607843137,194.01960784313727,-276.5098039215686,-23.44,22.9,23.01
1227.05,-193.01960784313727,123.50980392156863,-46.509803921568626,-14.48,29.3,20.98
1227.1,-27.50980392156863,-72.49019607843137,258.0,-17.49,26.92,15.94
1227.15,131.49019607843138,139.50980392156862,-199.50980392156862,-8.42,6.27,-1.41
1227.2,4.490196078431373,-72.49019607843137,-292.5098039215686,5.18,-19.55,-12.23
1227.25,-11.509803921568627,-72.49019607843137,-292.5098039215686,-4.64,0.64,7.78
1227.3,163.49019607843138,139.50980392156862,-138.50980392156862,-10.77,5.89,1.03
1227.35,51.490196078431374,139.50980392156862,-92.50980392156863,-8.63,-7.09,0.85
1227.4,-27.50980392156863,90.50980392156863,-138.50980392156862,-1.53,2.46,17.06
1227.45,178.49019607843138,41.509803921568626,-138.50980392156862,-5.69,6.38,13.98
1227.5,-43.509803921568626,107.50980392156863,-153.50980392156862,-1.46,-1.8,7.64
1227.55,-59.509803921568626,139.50980392156862,-184.50980392156862,-4.05,3.47,3.62
1227.6,-27.50980392156863,123.50980392156863,-184.50980392156862,-5.52,8.83,8.31
1227.65,-75.50980392156863,90.50980392156863,-215.50980392156862,-6.5,2.11,13.56
1227.7,19.49019607843137,41.509803921568626,-184.50980392156862,2.38,-16.47,2.43
1227.75,19.49019607843137,9.509803921568627,-169.50980392156862,11.94,-24.45,-5.16
1227.8,67.49019607843137,-23.49019607843137,-246.50980392156862,4.8,-13.21,-10.83
1227.85,147.49019607843138,41.509803921568626,-292.5098039215686,-4.64,-14.09,-17.51
1227.9,83.49019607843137,9.509803921568627,-261.5098039215686,-5.1,-5.76,-13.42
1227.95,194.49019607843138,41.509803921568626,320.0,-5.17,-4.04,-14.5
1228.0,99.49019607843137,107.50980392156863,304.0,1.02,-10.03,-15.13
1228.05,99.49019607843137,107.50980392156863,289.0,2.24,-11.04,-7.96
1228.1,163.49019607843138,107.50980392156863,304.0,-4.15,-6.21,-5.68
1228.15,147.49019607843138,156.50980392156862,320.0,-10.59,-6.95,4.63
1228.2,226.49019607843138,188.50980392156862,258.0,8.68,2.21,2.78
1228.25,99.49019607843137,74.50980392156863,-153.50980392156862,-20.01,1.16,-8.17
1228.3,154.0,101.0,224.50980392156862,3.64,5.89,-3.83
1228.35,306.4901960784314,-258.0,273.0,5.81,-6.84,-15.31
1228.4,-27.50980392156863,156.50980392156862,135.0,-1.49,-8.66,-24.93
1228.45,51.490196078431374,123.50980392156863,-246.50980392156862,2.56,-10.17,-28.85
1228.5,131.49019607843138,156.50980392156862,289.0,-1.14,-9.99,-36.52
1228.55,99.49019607843137,172.50980392156862,273.0,-0.9,-2.61,-27.45
1228.6,131.49019607843138,221.50980392156862,-230.50980392156862,3.4,1.37,-24.93
1228.65,242.49019607843138,172.50980392156862,-230.50980392156862,-4.08,-6.42,-33.79
1228.7,67.49019607843137,237.50980392156862,289.0,1.68,-5.93,-32.49
1228.75,210.49019607843138,286.5098039215686,181.0,1.86,-8.49,-47.65
1228.8,99.49019607843137,286.5098039215686,-292.5098039215686,8.75,-30.01,-72.5
1228.85,-11.509803921568627,-290.0,196.0,31.68,-42.3,-70.19
1228.9,-27.50980392156863,-241.0,273.0,21.39,-61.44,-85.55
1228.95,-3.019607843137255,-45.0,-67.49019607843137,15.3,-60.18,-91.08
1229.0,163.49019607843138,-111.0,-79.0,16.42,-26.76,-23.57
1229.05,251.98039215686273,-160.0,258.0,28.18,-53.88,-55.07
1229.1,83.49019607843137,-258.0,320.0,47.22,-92.73,-83.77
1229.15,-59.509803921568626,-307.0,27.0,43.75,-144.39,-127.41
1229.2,99.49019607843137,-62.0,27.0,32.73,-154.93,-134.03
1229.25,-139.50980392156862,68.0,-233.0,19.88,-153.74,-100.32
1229.3,-289.01960784313724,-133.50980392156862,270.5098039215686,42.35,-135.15,-60.56
1229.35,-273.01960784313724,-263.5098039215686,-21.49019607843137,52.29,-109.81,-39.77
1229.4,-289.01960784313724,-280.5098039215686,-36.490196078431374,75.39,-92.94,-33.09
1229.45,242.49019607843138,248.0,-6.490196078431373,68.22,-82.79,-27.49
1229.5,163.49019607843138,-263.5098039215686,9.509803921568627,96.99,-57.91,-15.83
1229.55,35.490196078431374,-198.50980392156862,-283.4901960784314,67.2,-48.11,15.59
1229.6,67.49019607843137,-231.50980392156862,-252.49019607843138,90.02,-51.05,45.13
1229.65,4.490196078431373,313.0,-37.490196078431374,77.14,-34.0,56.15
1229.7,-170.50980392156862,232.0,267.01960784313724,74.27,-39.15,57.34
1229.75,-75.50980392156863,52.0,-113.49019607843137,89.99,-19.3,47.54
1229.8,-234.50980392156862,35.0,221.01960784313727,80.22,-19.76,33.93
1229.85,-107.50980392156863,-111.0,-236.49019607843138,94.96,-17.17,37.99
1229.9,-107.50980392156863,35.0,-237.49019607843138,59.05,-4.22,46.63
1229.95,-234.50980392156862,-45.0,-113.49019607843137,33.22,5.75,79.6
1230.0,-202.50980392156862,35.0,-206.49019607843138,5.5,-4.43,117.12
1230.05,-154.50980392156862,52.0,-21.49019607843137,-3.91,-11.22,128.95
1230.1,-202.50980392156862,-78.0,-21.49019607843137,-20.67,-12.72,140.5
1230.15,313.0,-274.0,-67.49019607843137,-29.0,-21.54,126.36
1230.2,154.0,-290.0,-144.49019607843138,-47.55,-20.18,109.25
1230.25,58.0,58.509803921568626,-221.49019607843138,4.41,-35.96,107.5
1230.3,-68.0,156.50980392156862,267.01960784313724,-24.56,-24.03,77.82
1230.35,304.5098039215686,25.50980392156863,267.01960784313724,2.66,-14.09,58.6
1230.4,208.50980392156862,25.50980392156863,-283.4901960784314,9.31,-6.21,20.31
1230.45,-131.0,-187.49019607843138,267.01960784313724,-16.58,11.35,54.86
1230.5,-131.0,188.50980392156862,-221.49019607843138,-67.82,29.65,107.29
1230.55,-116.0,270.5098039215686,267.01960784313724,29.54,-11.32,17.79
1230.6,-163.0,205.50980392156862,282.01960784313724,-23.96,17.51,24.79
1230.65,-259.0,25.50980392156863,313.01960784313724,17.78,1.44,-1.94
1230.7,-163.0,254.50980392156862,282.01960784313724,28.74,-6.74,-7.5
1230.75,-306.0,319.5098039215686,-298.4901960784314,25.83,-19.62,29.76
1230.8,-195.0,221.50980392156862,-236.49019607843138,-13.57,-19.65,17.65
1230.85,-290.0,-23.49019607843137,-160.49019607843138,-11.82,-18.08,5.19
1230.9,-131.0,156.50980392156862,-237.49019607843138,-3.94,-13.42,12.96
1230.95,-195.0,221.50980392156862,-313.4901960784314,-8.42,-5.79,9.32
1231.0,-147.0,286.5098039215686,267.01960784313724,-17.56,-6.35,7.01
1231.05,-163.0,270.5098039215686,-283.4901960784314,-8.28,-9.61,-0.22
1231.1,-179.0,254.50980392156862,-283.4901960784314,-11.71,-9.85,2.11
1231.15,-179.0,303.5098039215686,-283.4901960784314,-23.05,-6.91,5.96
1231.2,-211.0,319.5098039215686,-252.49019607843138,-2.65,-4.92,-3.97
1231.25,-179.0,-274.0,267.01960784313724,12.01,-2.12,-3.83
1231.3,-259.0,-274.0,313.01960784313724,4.17,0.04,6.1
1231.35,-275.0,-241.0,313.01960784313724,-8.63,-2.75,8.41
1231.4,-243.0,-258.0,-283.4901960784314,-18.05,-3.34,18.49
1231.45,-227.0,-274.0,282.01960784313724,-16.61,11.14,14.29
1231.5,320.5098039215686,-241.0,267.01960784313724,8.47,12.96,-9.01
1231.55,-243.0,-258.0,252.01960784313727,-1.11,9.42,-6.42
1231.6,-195.0,319.5098039215686,282.01960784313724,-15.32,11.03,8.62
1231.65,-195.0,319.5098039215686,313.01960784313724,-8.77,1.13,-2.18
1231.7,-195.0,-290.0,313.01960784313724,-3.38,-7.4,2.71
1231.75,-195.0,-225.0,282.01960784313724,-9.12,-2.26,1.94
1231.8,-211.0,-258.0,298.01960784313724,-4.4,2.0,-2.85
1231.85,-195.0,-241.0,282.01960784313724,-4.99,3.75,-1.69
1231.9,-147.0,-258.0,252.01960784313727,-2.33,4.63,1.76
1231.95,-163.0,-225.0,313.01960784313724,0.0,3.09,6.31
1232.0,-147.0,-225.0,-313.4901960784314,-3.49,3.68,4.28
1232.05,-163.0,-225.0,-298.4901960784314,-3.94,2.18,13.7
1232.1,-131.0,-209.0,298.01960784313724,-7.34,-3.27,14.75
1232.15,-243.0,-192.0,298.01960784313724,11.69,-2.26,24.51
1232.2,-179.0,-127.0,236.01960784313727,6.13,3.02,15.06
1232.25,-211.0,-160.0,282.01960784313724,-14.23,5.75,18.11
1232.3,74.0,-290.0,267.01960784313724,-29.95,7.6,-1.17
1232.35,-195.0,-290.0,313.01960784313724,-22.67,8.23,11.32
1232.4,-163.0,-209.0,252.01960784313727,24.99,-12.2,-6.28
1232.45,208.50980392156862,-160.0,-113.49019607843137,-26.66,12.82,11.35
1232.5,-163.0,-127.0,252.01960784313727,-27.71,17.3,0.05
1232.55,-195.0,-209.0,282.01960784313724,-16.68,17.47,3.27
1232.6,-195.0,-143.0,236.01960784313727,-18.92,-7.23,30.15
1232.65,-147.0,-209.0,-283.4901960784314,-9.23,2.56,29.66
1232.7,-211.0,-45.0,-298.4901960784314,-11.89,-0.65,29.97
1232.75,-211.0,-78.0,-313.4901960784314,-30.86,0.64,9.39
1232.8,-163.0,-78.0,267.01960784313724,-0.48,-5.41,4.49
1232.85,-147.0,-13.0,282.01960784313724,4.66,-0.23,43.17
1232.9,-147.0,-94.0,298.01960784313724,4.94,-10.59,35.08
1232.95,-211.0,-29.0,267.01960784313724,-43.35,16.18,20.42
1233.0,-147.0,-78.0,313.01960784313724,-65.93,28.25,-0.71
1233.05,-131.0,19.0,-313.4901960784314,-1.07,-1.91,-6.21
1233.1,-116.0,52.0,159.01960784313727,29.19,-13.28,-11.25
1233.15,-147.0,35.0,221.01960784313727,19.08,-10.41,-3.3
1233.2,-147.0,-13.0,298.01960784313724,21.14,-12.16,5.89
1233.25,-163.0,19.0,267.01960784313724,15.3,-7.33,10.62
1233.3,-163.0,19.0,267.01960784313724,15.33,-9.05,21.57
1233.35,-147.0,-78.0,313.01960784313724,49.88,-47.37,84.5
1233.4,27.0,19.0,313.01960784313724,18.2,-16.64,41.52
1233.45,320.5098039215686,-209.0,-283.4901960784314,-13.08,11.28,-33.16
1233.5,-306.0,-78.0,313.01960784313724,-44.93,34.03,-59.76
1233.55,-290.0,-29.0,-298.4901960784314,-13.43,1.37,-103.33
1233.6,-195.0,-62.0,282.01960784313724,36.44,0.32,41.42
1233.65,320.5098039215686,-263.5098039215686,236.01960784313727,48.44,-0.86,23.64
1233.7,-52.0,-29.0,175.01960784313727,-27.99,60.73,64.97
1233.75,224.50980392156862,188.50980392156862,-206.49019607843138,4.24,25.1,90.03
1233.8,-211.0,68.0,282.01960784313724,-18.78,51.39,102.07
1233.85,-211.0,-45.0,-283.4901960784314,1.65,28.71,46.67
1233.9,27.0,52.0,221.01960784313727,-14.86,5.75,6.1
1233.95,-52.0,-29.0,-221.49019607843138,28.0,-35.4,-41.42
1234.0,42.0,68.0,236.01960784313727,5.88,-25.11,-38.06
1234.05,-36.0,-209.0,-283.4901960784314,-16.72,21.22,29.94
1234.1,-84.0,-62.0,236.01960784313727,15.89,21.88,82.89
1234.15,-52.0,84.0,252.01960784313727,-20.95,11.87,19.47
1234.2,-52.0,-13.0,236.01960784313727,-13.85,-9.19,-41.45
1234.25,-20.0,-13.0,-298.4901960784314,33.22,-36.45,-58.15
1234.3,-20.0,-111.0,221.01960784313727,47.81,-41.91,-53.67
1234.35,-100.0,-13.0,282.01960784313724,19.25,-20.98,-17.93
1234.4,-116.0,-13.0,282.01960784313724,-4.01,-5.65,2.64
1234.45,-100.0,19.0,252.01960784313727,1.54,-5.06,0.64
1234.5,-100.0,-45.0,252.01960784313727,0.88,5.68,11.56
1234.55,-116.0,-78.0,282.01960784313724,1.96,28.85,85.03
1234.6,-100.0,35.0,282.01960784313724,-26.94,44.67,41.28
1234.65,-84.0,35.0,206.01960784313727,-26.13,3.37,-15.66
1234.7,-52.0,-29.0,-298.4901960784314,6.16,-14.79,-40.12
1234.75,-36.0,3.0,221.01960784313727,23.77,-36.56,-37.18
1234.8,-116.0,-143.0,313.01960784313724,42.67,-39.95,-15.27
1234.85,-100.0,52.0,267.01960784313724,15.09,-26.58,28.43
1234.9,-100.0,-45.0,-283.4901960784314,37.73,-31.2,31.48
1234.95,-100.0,19.0,282.01960784313724,-9.16,-0.89,0.36
1235.0,-195.0,-160.0,298.01960784313724,-13.01,9.11,-20.84
1235.05,-179.0,-62.0,-298.4901960784314,-38.03,0.08,-30.08
1235.1,-147.0,-94.0,252.01960784313727,25.83,-24.52,31.09
1235.15,-131.0,52.0,282.01960784313724,7.32,-2.57,19.75
1235.2,288.5098039215686,-143.0,236.01960784313727,-14.97,2.84,-32.49
1235.25,-195.0,-78.0,313.01960784313724,-17.28,4.28,-22.27
1235.3,-243.0,-94.0,267.01960784313724,49.28,-28.23,41.59
1235.35,-36.0,101.0,-267.4901960784314,-11.75,8.79,-8.06
1235.4,256.5098039215686,-127.0,190.01960784313727,-40.66,18.77,-36.59
1235.45,-259.0,-143.0,-237.49019607843138,-1.74,-5.9,-24.16
1235.5,-147.0,-62.0,236.01960784313727,-11.71,-4.18,-18.42
1235.55,-147.0,-45.0,267.01960784313724,-9.96,-2.99,-7.01
1235.6,-179.0,-62.0,282.01960784313724,-5.87,-3.34,-4.42
1235.65,-179.0,-29.0,252.01960784313727,-2.65,-5.16,-1.41
1235.7,-179.0,-29.0,267.01960784313724,-5.73,-3.48,-2.29
1235.75,-211.0,-45.0,298.01960784313724,-4.5,-1.66,3.79
1235.8,-179.0,-45.0,-313.4901960784314,-9.86,-2.61,-5.58
1235.85,-211.0,-45.0,-313.4901960784314,-34.99,-6.32,-21.15
1235.9,-290.0,-111.0,313.01960784313724,-74.08,72.88,-67.88
1235.95,193.50980392156862,3.0,-190.49019607843138,-82.24,48.94,-50.31
1236.0,304.5098039215686,-143.0,-298.4901960784314,-180.41,76.83,-47.05
1236.05,208.50980392156862,68.0,5.019607843137255,-323.11,158.84,8.27
1236.1,-306.0,166.0,67.01960784313725,-309.39,192.54,83.03
1236.15,106.0,-220.01960784313727,82.01960784313725,-158.99,145.89,162.34
1236.2,-218.50980392156862,144.49019607843138,-190.49019607843138,-66.63,80.12,116.98
1236.25,-186.50980392156862,35.0,101.50980392156863,99.61,-5.16,3.79
1236.3,-107.50980392156863,-29.0,-279.0,-15.53,-84.44,-68.72
1236.35,-91.50980392156863,-62.0,196.0,-22.04,-85.1,56.15
1236.4,-218.50980392156862,-225.52941176470588,-295.0,-45.49,-48.74,74.84
1236.45,-139.50980392156862,258.4901960784314,178.50980392156862,-36.95,-32.99,36.45
1236.5,-186.50980392156862,-149.50980392156862,193.50980392156862,-80.77,-41.04,-3.65
1236.55,-107.50980392156863,-116.50980392156863,-249.0,-50.77,-69.32,-3.93
1236.6,-91.50980392156863,-302.01960784313724,-141.0,6.41,-97.35,-2.78
1236.65,-123.50980392156863,258.4901960784314,-264.0,108.78,-118.7,-6.94
1236.7,-186.50980392156862,128.49019607843138,-295.0,89.57,-115.1,-17.16
1236.75,297.0,30.49019607843137,286.5098039215686,95.45,-114.4,-22.8
1236.8,201.0,-100.50980392156863,193.50980392156862,103.81,-104.28,-29.73
1236.85,58.0,111.49019607843137,-52.490196078431374,110.15,-94.27,-33.75
1236.9,58.0,-198.50980392156862,-113.49019607843137,52.61,-92.24,-53.74
1236.95,-68.0,-214.50980392156862,-221.49019607843138,-39.54,-80.13,-75.02
1237.0,-195.0,150.0,-129.49019607843138,-26.66,-81.6,-109.7
1237.05,-275.0,264.0,-175.49019607843138,8.68,-95.71,-158.98
1237.1,177.50980392156862,-247.50980392156862,-175.49019607843138,-75.45,-76.84,-198.15
1237.15,-188.49019607843138,232.0,-144.49019607843138,-133.16,-69.95,-185.34
1237.2,-236.49019607843138,232.0,-6.490196078431373,-86.68,-70.09,-172.6
1237.25,-188.49019607843138,-296.5098039215686,-52.490196078431374,10.15,-68.58,-153.42
1237.3,247.01960784313727,-198.50980392156862,-190.49019607843138,11.31,-49.02,-120.27
1237.35,216.01960784313727,297.0,-144.49019607843138,-37.93,-18.39,-47.65
1237.4,-283.4901960784314,215.0,-83.49019607843137,-22.53,-3.9,-15.06
1237.45,-140.49019607843138,264.0,-67.49019607843137,-33.73,11.66,-2.67
1237.5,-124.49019607843137,199.0,-21.49019607843137,-42.79,20.48,6.66
1237.55,-108.49019607843137,183.0,9.509803921568627,-29.49,20.13,20.28
1237.6,-45.490196078431374,215.0,-6.490196078431373,-29.63,16.95,27.87
1237.65,-61.490196078431374,166.0,70.50980392156863,-25.19,12.05,24.51
1237.7,-45.490196078431374,183.0,39.509803921568626,-11.12,5.36,21.78
1237.75,-61.490196078431374,183.0,55.509803921568626,-12.62,-2.99,21.08
1237.8,-77.49019607843137,150.0,55.509803921568626,-13.78,-20.18,5.96
1237.85,-124.49019607843137,183.0,70.50980392156863,-6.01,-28.02,-36.24
1237.9,231.01960784313727,232.0,-6.490196078431373,28.11,-22.98,-9.29
1237.95,-315.4901960784314,-296.5098039215686,-52.490196078431374,93.63,-22.77,22.34
1238.0,-204.49019607843138,-247.50980392156862,9.509803921568627,63.77,10.82,39.49
1238.05,216.01960784313727,313.0,39.509803921568626,57.23,37.91,69.98
1238.1,279.01960784313724,313.0,86.50980392156863,-23.82,95.35,186.53
1238.15,200.01960784313727,-67.50980392156863,-21.49019607843137,-75.1,129.58,310.43
1238.2,57.01960784313726,-253.01960784313727,-206.49019607843138,-150.52,131.05,-255.37
1238.25,216.01960784313727,-89.01960784313725,-252.49019607843138,-54.62,92.48,-188.87
1238.3,-93.49019607843137,-307.52941176470586,-283.4901960784314,42.53,62.8,-169.09
1238.35,65.50980392156863,-89.01960784313725,70.50980392156863,94.54,44.0,-249.84
1238.4,161.50980392156862,-214.50980392156862,301.5098039215686,62.93,26.75,286.8
1238.45,-179.0,35.0,-279.0,75.11,-7.54,165.42
1238.5,170.0,-160.0,-203.0,72.45,-19.76,53.56
1238.55,233.0,-176.0,193.50980392156862,42.04,-41.14,13.21
1238.6,-186.50980392156862,19.0,24.50980392156863,110.32,-40.23,-17.41
1238.65,-154.50980392156862,19.0,-206.49019607843138,34.79,-17.97,-19.16
1238.7,-154.50980392156862,-274.0,-36.490196078431374,41.13,-15.42,-18.81
1238.75,-27.50980392156863,-78.0,9.509803921568627,10.12,-5.34,-14.33
1238.8,-43.509803921568626,-225.0,101.50980392156863,25.69,7.81,-23.71
1238.85,-27.50980392156863,-274.0,9.509803921568627,3.64,8.34,-18.6
1238.9,-11.509803921568627,303.5098039215686,70.50980392156863,-0.79,7.78,-20.7
1238.95,-27.50980392156863,-225.0,24.50980392156863,-3.42,15.83,-3.83
1239.0,4.490196078431373,-274.0,-67.49019607843137,22.37,19.99,13.66
1239.05,163.49019607843138,-160.0,-52.490196078431374,-5.83,25.56,32.95
1239.1,163.49019607843138,-290.0,-37.490196078431374,5.64,23.32,54.47
1239.15,147.49019607843138,-258.0,-98.49019607843137,-27.67,31.05,36.38
1239.2,-320.01960784313724,221.50980392156862,24.50980392156863,-38.84,5.4,47.72
1239.25,-241.01960784313727,-241.0,239.50980392156862,-53.36,9.14,48.94
1239.3,163.49019607843138,-143.0,239.50980392156862,-4.01,11.56,34.14
1239.35,242.49019607843138,-62.0,193.50980392156862,-46.15,8.09,38.44
1239.4,274.4901960784314,-209.0,132.50980392156862,12.04,0.25,24.23
1239.45,115.49019607843137,-127.0,-21.49019607843137,9.28,-7.51,17.79
1239.5,4.490196078431373,319.5098039215686,132.50980392156862,-1.11,-7.4,6.98
1239.55,-11.509803921568627,-192.0,70.50980392156863,14.42,1.62,-23.57
1239.6,-27.50980392156863,-274.0,70.50980392156863,19.22,6.38,-57.55
1239.65,-11.509803921568627,237.50980392156862,70.50980392156863,-10.24,-6.25,-115.44
1239.7,-59.509803921568626,205.50980392156862,132.50980392156862,29.44,-45.45,-156.92
1239.75,4.490196078431373,-274.0,39.509803921568626,26.46,-82.51,-206.55
1239.8,-154.50980392156862,-94.0,239.50980392156862,-61.03,-113.63,-300.03
1239.85,233.0,52.0,70.50980392156863,-74.99,-115.45,323.09
1239.9,27.0,117.0,224.50980392156862,-43.88,-101.31,312.24
1239.95,-227.0,-116.50980392156863,-21.49019607843137,-16.47,-59.27,-324.08
1240.0,-243.0,177.49019607843138,-36.490196078431374,43.05,-48.0,-313.33
1240.05,-227.0,62.490196078431374,-98.49019607843137,-32.4,-46.39,-302.8
1240.1,49.509803921568626,291.4901960784314,236.01960784313727,-74.82,-65.61,-277.81
1240.15,113.50980392156863,-100.50980392156863,-129.49019607843138,-28.83,-88.88,-261.88
1240.2,-77.49019607843137,-84.50980392156863,-313.4901960784314,40.04,-101.97,-250.12
1240.25,-315.4901960784314,-263.5098039215686,-221.49019607843138,0.46,-90.74,-218.31
1240.3,216.01960784313727,-312.5098039215686,-206.49019607843138,-71.11,-41.11,-123.42
1240.35,247.01960784313727,-280.5098039215686,-160.49019607843138,-81.96,-15.98,-51.81
1240.4,-220.49019607843138,-231.50980392156862,-129.49019607843138,-71.6,-10.94,2.22
1240.45,-108.49019607843137,-214.50980392156862,-52.490196078431374,-46.33,-13.91,12.75
1240.5,-252.49019607843138,-231.50980392156862,-113.49019607843137,-57.18,-0.44,20.63
1240.55,200.01960784313727,-263.5098039215686,-52.490196078431374,-9.47,-14.37,78.73
1240.6,-29.49019607843137,-198.50980392156862,39.509803921568626,143.5,-31.9,102.95
1240.65,-61.490196078431374,-133.50980392156862,-52.490196078431374,191.52,-1.91,96.33
1240.7,120.01960784313725,-182.50980392156862,-6.490196078431373,91.63,38.65,96.51
1240.75,25.019607843137255,281.0,224.50980392156862,-31.07,60.94,127.27
1240.8,152.01960784313727,232.0,239.50980392156862,-13.57,46.03,153.56
1240.85,263.01960784313724,313.0,255.50980392156862,38.12,31.93,148.45
1240.9,-299.4901960784314,281.0,209.50980392156862,40.99,19.75,125.1
1240.95,-204.49019607843138,215.0,301.5098039215686,25.97,5.89,87.48
1241.0,-140.49019607843138,133.0,-310.0,11.8,-9.19,37.71
1241.05,-93.49019607843137,117.0,316.5098039215686,15.58,-21.54,-22.27
1241.1,-188.49019607843138,101.0,286.5098039215686,-0.72,-36.52,-83.0
1241.15,-315.4901960784314,68.0,132.50980392156862,-7.9,-40.97,-139.98
1241.2,72.01960784313725,101.0,39.509803921568626,-30.19,-26.62,-133.54
1241.25,-315.4901960784314,84.0,-36.490196078431374,-65.3,-4.5,-136.51
1241.3,-267.4901960784314,52.0,-36.490196078431374,-137.33,22.51,-147.26
1241.35,247.01960784313727,52.0,70.50980392156863,-169.25,30.42,-138.96
1241.4,-267.4901960784314,166.0,209.50980392156862,-111.32,20.8,-132.7
1241.45,-140.49019607843138,-263.5098039215686,178.50980392156862,-37.09,2.04,-123.81
1241.5,-140.49019607843138,-198.50980392156862,147.50980392156862,-24.94,-8.45,-92.38
1241.55,-108.49019607843137,-247.50980392156862,116.50980392156863,-45.24,-13.84,-48.17
1241.6,-29.49019607843137,-312.5098039215686,132.50980392156862,-9.4,-20.07,-8.52
1241.65,-13.490196078431373,-214.50980392156862,-6.490196078431373,23.45,-22.8,27.38
1241.7,-61.490196078431374,-263.5098039215686,-21.49019607843137,8.54,-25.64,44.04
1241.75,-204.49019607843138,281.0,-21.49019607843137,27.37,3.68,62.21
1241.8,-117.98039215686275,-247.50980392156862,-190.49019607843138,40.46,12.08,110.75
1241.85,-204.49019607843138,-280.5098039215686,39.509803921568626,45.92,18.1,129.3
1241.9,-172.49019607843138,281.0,147.50980392156862,64.44,23.14,102.77
1241.95,168.01960784313727,281.0,132.50980392156862,51.35,31.61,77.75
1242.0,88.01960784313725,281.0,209.50980392156862,18.8,30.74,78.55
1242.05,311.01960784313724,248.0,-279.0,-3.03,14.74,84.12
1242.1,-236.49019607843138,248.0,-233.0,13.65,-7.12,74.32
1242.15,-172.49019607843138,264.0,-249.0,49.74,-27.42,45.62
1242.2,-140.49019607843138,281.0,-264.0,62.65,-41.49,11.88
1242.25,-108.49019607843137,232.0,-233.0,59.15,-52.24,-22.45
1242.3,-204.49019607843138,232.0,-249.0,57.44,-49.72,-34.28
1242.35,-299.4901960784314,281.0,209.50980392156862,37.49,-38.45,-52.51
1242.4,184.01960784313727,232.0,178.50980392156862,-69.29,0.64,-46.25
1242.45,-149.98039215686273,68.0,55.509803921568626,-92.25,15.65,4.74
1242.5,-236.49019607843138,68.0,-129.49019607843138,9.03,21.57,12.61
1242.55,34.509803921568626,183.0,-160.49019607843138,-27.15,30.21,-34.45
1242.6,-140.49019607843138,19.0,-52.490196078431374,-88.4,26.15,-67.88
1242.65,-188.49019607843138,19.0,70.50980392156863,-55.39,9.0,-67.77
1242.7,-29.49019607843137,183.0,86.50980392156863,12.92,-8.38,-61.72
1242.75,2.5098039215686274,281.0,70.50980392156863,-3.77,-10.8,-56.92
1242.8,-108.49019607843137,215.0,132.50980392156862,-49.9,-10.9,-39.98
1242.85,-124.49019607843137,166.0,147.50980392156862,-11.82,-24.8,-14.75
1242.9,-61.490196078431374,281.0,39.509803921568626,42.67,-36.56,4.32
1242.95,-77.49019607843137,-312.5098039215686,24.50980392156863,54.92,-43.28,15.76
1243.0,-61.490196078431374,281.0,55.509803921568626,39.24,-18.88,16.46
1243.05,136.01960784313727,297.0,-52.490196078431374,22.51,-9.43,40.75
1243.1,-315.4901960784314,-312.5098039215686,101.50980392156863,47.95,-11.74,58.39
1243.15,-108.49019607843137,-280.5098039215686,209.50980392156862,106.3,-16.15,57.55
1243.2,-204.49019607843138,-214.50980392156862,209.50980392156862,163.59,-10.69,42.12
1243.25,216.01960784313727,-182.50980392156862,239.50980392156862,105.11,20.17,37.57
1243.3,136.01960784313727,-231.50980392156862,-295.0,3.4,31.37,55.03
1243.35,247.01960784313727,297.0,-172.0,-35.97,17.16,70.96
1243.4,-283.4901960784314,313.0,-141.0,37.03,-6.04,75.79
1243.45,-204.49019607843138,-149.50980392156862,-187.0,85.51,-23.36,78.1
1243.5,-267.4901960784314,-198.50980392156862,-141.0,59.15,-29.45,82.79
1243.55,279.01960784313724,-312.5098039215686,-156.0,24.19,-22.0,83.56
1243.6,216.01960784313727,281.0,-233.0,-10.91,-7.3,69.0
1243.65,200.01960784313727,199.0,270.5098039215686,-44.79,1.79,30.71
1243.7,104.01960784313725,133.0,193.50980392156862,-61.48,12.92,-7.26
1243.75,88.01960784313725,117.0,86.50980392156863,29.26,-2.85,-11.74
1243.8,-13.490196078431373,84.0,-160.49019607843138,97.48,-1.94,-30.92
1243.85,-61.490196078431374,133.0,-237.49019607843138,-5.52,18.31,-67.39
1243.9,-220.49019607843138,-78.0,-67.49019607843137,-57.88,21.74,-83.98
1243.95,-93.49019607843137,3.0,55.509803921568626,-12.41,17.23,-97.87
1244.0,-108.49019607843137,248.0,116.50980392156863,18.41,9.25,-99.9
1244.05,-172.49019607843138,313.0,163.50980392156862,-3.0,3.33,-81.28
1244.1,-156.49019607843138,297.0,255.50980392156862,-27.22,-5.72,-49.61
1244.15,-77.49019607843137,-312.5098039215686,-295.0,-15.04,-19.23,-20.73
1244.2,-13.490196078431373,-263.5098039215686,301.5098039215686,-7.41,-39.39,5.19
1244.25,-45.490196078431374,-263.5098039215686,286.5098039215686,-7.9,-60.11,6.0
1244.3,-236.49019607843138,-280.5098039215686,270.5098039215686,55.13,-58.99,8.17
1244.35,120.01960784313725,-214.50980392156862,101.50980392156863,130.06,-48.91,46.39
1244.4,279.01960784313724,-133.50980392156862,-52.490196078431374,131.53,-12.13,84.19
1244.45,120.01960784313725,-214.50980392156862,86.50980392156863,41.62,37.35,135.29
1244.5,184.01960784313727,232.0,39.509803921568626,20.9,53.49,151.04
1244.55,263.01960784313724,199.0,178.50980392156862,24.33,59.12,135.67
1244.6,231.01960784313727,199.0,178.50980392156862,22.33,53.38,101.55
1244.65,-315.4901960784314,166.0,286.5098039215686,4.59,47.22,62.87
1244.7,-220.49019607843138,133.0,-279.0,-5.83,27.62,6.59
1244.75,-93.49019607843137,150.0,-203.0,9.56,15.51,-38.41
1244.8,-204.49019607843138,183.0,-295.0,-3.35,6.97,-73.76
1244.85,263.01960784313724,183.0,-264.0,-62.92,1.65,-110.89
1244.9,-54.98039215686274,166.0,-218.0,-83.18,-7.58,-102.0
1244.95,231.01960784313727,281.0,-295.0,34.09,-56.72,-60.91
1245.0,-93.49019607843137,-312.5098039215686,193.50980392156862,84.88,-60.36,-41.21
1245.05,-315.4901960784314,297.0,55.509803921568626,0.0,-46.99,-40.75
1245.1,-140.49019607843138,52.0,116.50980392156863,-59.8,-28.58,-56.71
1245.15,-61.490196078431374,68.0,86.50980392156863,-69.43,-11.6,-78.83
1245.2,-61.490196078431374,183.0,24.50980392156863,-89.38,3.05,-79.32
1245.25,-124.49019607843137,183.0,70.50980392156863,-77.69,2.32,-53.39
1245.3,-93.49019607843137,248.0,39.509803921568626,-29.0,-6.49,-28.05
1245.35,-77.49019607843137,-312.5098039215686,-6.490196078431373,-14.06,-8.87,-9.01
1245.4,-220.49019607843138,297.0,55.509803921568626,-9.33,-21.44,-6.63
1245.45,-299.4901960784314,313.0,55.509803921568626,40.43,-0.05,3.16
1245.5,104.01960784313725,-198.50980392156862,-83.49019607843137,46.62,18.91,47.12
1245.55,-315.4901960784314,-247.50980392156862,116.50980392156863,47.57,44.81,79.6
1245.6,136.01960784313727,-263.5098039215686,55.509803921568626,11.13,70.46,106.55
1245.65,136.01960784313727,297.0,209.50980392156862,-23.47,68.47,124.65
1245.7,279.01960784313724,248.0,-310.0,2.7,52.96,115.55
1245.75,311.01960784313724,313.0,316.5098039215686,23.59,37.14,95.21
1245.8,-267.4901960784314,264.0,-218.0,19.88,19.12,69.38
1245.85,-220.49019607843138,215.0,-218.0,21.56,-1.0,36.59
1245.9,-188.49019607843138,183.0,-203.0,26.85,-20.35,1.94
1245.95,-236.49019607843138,183.0,-203.0,4.69,-40.69,-41.35
1246.0,311.01960784313724,183.0,-218.0,-26.76,-53.18,-72.18
1246.05,136.01960784313727,183.0,-203.0,10.43,-62.49,-65.81
1246.1,311.01960784313724,313.0,178.50980392156862,16.56,-56.51,-43.66
1246.15,-220.49019607843138,183.0,132.50980392156862,-82.38,-44.12,-51.46
1246.2,311.01960784313724,3.0,86.50980392156863,-39.78,-45.1,-69.42
1246.25,-204.49019607843138,166.0,-144.49019607843138,13.69,-44.54,-79.6
1246.3,-61.490196078431374,248.0,-160.49019607843138,7.42,-29.24,-76.45
1246.35,-124.49019607843137,199.0,-52.490196078431374,-16.86,-6.84,-55.28
1246.4,-267.4901960784314,215.0,9.509803921568627,-30.05,8.09,-19.72
1246.45,-220.49019607843138,248.0,70.50980392156863,-18.82,21.53,14.5
1246.5,-220.49019607843138,297.0,70.50980392156863,-35.44,28.22,34.94
1246.55,-283.4901960784314,232.0,178.50980392156862,-39.68,31.75,25.91
1246.6,-38.98039215686274,264.0,132.50980392156862,-9.96,45.51,43.24
1246.65,88.01960784313725,-312.5098039215686,86.50980392156863,17.33,53.07,81.04
1246.7,-220.49019607843138,248.0,193.50980392156862,8.16,64.58,72.85
1246.75,295.01960784313724,183.0,147.50980392156862,-21.51,69.69,53.39
1246.8,263.01960784313724,133.0,301.5098039215686,-34.67,64.06,37.08
1246.85,-283.4901960784314,150.0,301.5098039215686,-34.88,53.45,23.88
1246.9,-220.49019607843138,166.0,-310.0,-41.01,30.88,4.49
1246.95,-188.49019607843138,166.0,-249.0,-21.97,12.29,-21.85
1247.0,-108.49019607843137,183.0,-279.0,-7.69,-4.29,-56.78
1247.05,-77.49019607843137,183.0,-264.0,-19.83,-11.6,-97.77
1247.1,-188.49019607843138,166.0,-264.0,-38.03,-9.75,-129.65
1247.15,279.01960784313724,215.0,-310.0,-69.53,-13.98,-154.47
1247.2,168.01960784313727,281.0,316.5098039215686,-99.6,-7.58,-142.74
1247.25,-165.98039215686273,297.0,286.5098039215686,-84.37,-10.2,-83.28
1247.3,216.01960784313727,-280.5098039215686,162.50980392156862,-31.38,-21.61,-36.62
1247.35,-108.49019607843137,-312.5098039215686,163.50980392156862,-41.29,-10.62,-27.1
1247.4,-315.4901960784314,248.0,86.50980392156863,-76.95,-9.08,-33.09
1247.45,-140.49019607843138,133.0,163.50980392156862,-50.7,-13.21,-39.14
1247.5,-13.490196078431373,232.0,116.50980392156863,-33.55,-9.47,-35.64
1247.55,-29.49019607843137,232.0,24.50980392156863,-50.53,-2.5,-22.31
1247.6,-124.49019607843137,166.0,24.50980392156863,-49.44,1.23,-1.59
1247.65,-156.49019607843138,199.0,-36.490196078431374,-25.78,7.46,27.07
1247.7,-188.49019607843138,199.0,-36.490196078431374,-30.65,10.65,41.77
1247.75,-156.49019607843138,150.0,-6.490196078431373,-11.89,-3.97,28.15
1247.8,-108.49019607843137,166.0,24.50980392156863,-1.6,1.23,-8.87
1247.85,200.01960784313727,183.0,-21.49019607843137,-3.77,29.79,12.44
1247.9,216.01960784313727,248.0,-21.49019607843137,-2.75,41.31,56.75
1247.95,279.01960784313724,199.0,178.50980392156862,-15.63,63.64,69.7
1248.0,120.01960784313725,199.0,116.50980392156863,-33.2,69.76,73.44
1248.05,231.01960784313727,183.0,255.50980392156862,-45.84,65.91,69.31
1248.1,-299.4901960784314,166.0,301.5098039215686,-32.75,54.29,52.83
1248.15,-267.4901960784314,215.0,316.5098039215686,-22.28,32.59,25.35
1248.2,-124.49019607843137,183.0,-264.0,-16.93,17.19,3.51
1248.25,-61.490196078431374,183.0,-279.0,-34.81,-6.74,-42.22
1248.3,-45.490196078431374,117.0,-187.0,-26.76,-30.4,-105.4
1248.35,-188.49019607843138,183.0,-249.0,32.38,-44.19,-139.07
1248.4,-299.4901960784314,313.0,239.50980392156862,49.74,-44.5,-133.5
1248.45,295.01960784313724,313.0,162.50980392156862,-43.49,-25.36,-128.78
1248.5,9.019607843137255,183.0,193.50980392156862,-169.18,8.72,-83.31
1248.55,-70.98039215686275,166.0,209.50980392156862,-73.21,-22.31,-27.7
1248.6,-13.490196078431373,-263.5098039215686,162.50980392156862,76.06,-17.9,-0.26
1248.65,-299.4901960784314,-84.50980392156863,-36.490196078431374,-109.26,9.91,23.78
1248.7,311.01960784313724,133.0,255.50980392156862,-198.75,-10.1,56.82
1248.75,-61.490196078431374,117.0,-218.0,-124.76,-36.52,65.25
1248.8,2.5098039215686274,-67.50980392156863,-280.0,-62.6,-46.81,66.34
1248.85,-13.490196078431373,-67.50980392156863,301.5098039215686,115.29,-17.48,10.72
1248.9,-13.490196078431373,-133.50980392156862,209.50980392156862,-101.77,-6.56,14.68
1248.95,-108.49019607843137,-290.0,-36.490196078431374,-22.56,-2.96,16.08
1249.0,-54.98039215686274,-116.50980392156863,163.50980392156862,79.59,-14.12,45.23
1249.05,104.01960784313725,46.490196078431374,-126.0,93.84,-14.54,31.16
1249.1,216.01960784313727,281.0,-79.0,-11.64,4.45,-11.6
1249.15,136.01960784313727,183.0,-79.0,-26.31,3.02,2.08
1249.2,200.01960784313727,-231.50980392156862,27.0,-41.78,25.14,13.98
1249.25,279.01960784313724,-247.50980392156862,58.0,-69.04,34.8,1.69
1249.3,-252.49019607843138,-280.5098039215686,-64.0,-71.11,50.2,-21.82
1249.35,-188.49019607843138,-198.50980392156862,-79.0,-86.75,72.84,-36.34
1249.4,-204.49019607843138,-182.50980392156862,43.0,-110.55,76.97,-40.47
1249.45,-124.49019607843137,-198.50980392156862,150.0,-72.23,53.91,-31.65
1249.5,-45.490196078431374,46.490196078431374,-141.0,-6.99,41.69,-29.55
1249.55,-252.49019607843138,30.49019607843137,-187.0,33.71,25.24,-46.77
1249.6,279.01960784313724,-149.50980392156862,193.50980392156862,18.52,30.56,-28.54
1249.65,136.01960784313727,-247.50980392156862,193.50980392156862,41.58,5.61,13.73
1249.7,-252.49019607843138,13.490196078431373,236.01960784313727,-51.58,-3.03,11.28
1249.75,-13.490196078431373,183.0,301.5098039215686,-180.03,-7.68,19.02
1249.8,272.5098039215686,68.0,-95.0,220.57,-22.73,-41.24
1249.85,177.50980392156862,-236.01960784313727,-98.49019607843137,9.0,1.34,-24.3
1249.9,2.5098039215686274,-225.0,-264.0,-39.78,20.45,-27.1
1249.95,-315.4901960784314,248.0,116.50980392156863,24.19,14.64,7.26
1250.0,247.01960784313727,24.980392156862745,224.50980392156862,-86.16,20.8,49.05
1250.05,-172.49019607843138,313.0,-203.0,-143.42,21.01,40.58
1250.1,-220.49019607843138,183.0,316.5098039215686,-81.05,19.15,68.19
1250.15,-283.4901960784314,-253.01960784313727,286.5098039215686,-208.34,31.26,57.97
1250.2,-220.49019607843138,-231.50980392156862,-218.0,-0.86,-4.6,18.18
1250.25,161.50980392156862,-18.50980392156863,-249.0,84.42,-20.84,-19.72
1250.3,113.50980392156863,-263.5098039215686,316.5098039215686,213.15,-41.11,-49.75
1250.35,-13.490196078431373,46.490196078431374,286.5098039215686,81.87,-35.3,-55.8
1250.4,-315.4901960784314,-67.50980392156863,-279.0,26.43,-17.59,-25.77
1250.45,57.01960784313726,-51.509803921568626,-280.0,62.55,-27.6,-6.52
1250.5,216.01960784313727,-133.50980392156862,-95.0,51.0,-34.91,5.02
1250.55,295.01960784313724,-247.50980392156862,-49.0,41.02,-20.49,-1.76
1250.6,-252.49019607843138,-296.5098039215686,-264.0,11.69,-2.61,-16.25
1250.65,-204.49019607843138,-214.50980392156862,-310.0,43.12,-6.88,-13.66
1250.7,-220.49019607843138,-100.50980392156863,255.50980392156862,34.97,-12.3,-2.85
1250.75,-188.49019607843138,-231.50980392156862,-279.0,37.49,-13.32,6.49
1250.8,-252.49019607843138,-296.5098039215686,239.50980392156862,41.34,-5.51,3.9
1250.85,-315.4901960784314,-231.50980392156862,270.5098039215686,14.67,-21.72,-2.85
1250.9,-156.49019607843138,-312.5098039215686,193.50980392156862,27.76,-46.5,-0.29
1250.95,-124.49019607843137,264.0,-249.0,58.84,-49.26,-15.13
1251.0,-252.49019607843138,-247.50980392156862,239.50980392156862,63.42,-56.3,0.33
1251.05,-140.49019607843138,-149.50980392156862,286.5098039215686,46.38,-26.79,30.53
1251.1,-140.49019607843138,-247.50980392156862,178.50980392156862,73.19,-20.32,37.36
1251.15,-188.49019607843138,-100.50980392156863,270.5098039215686,78.96,-22.8,34.56
1251.2,-188.49019607843138,-231.50980392156862,-203.0,42.14,-27.21,26.3
1251.25,-236.49019607843138,-280.5098039215686,-203.0,21.11,-18.43,26.68
1251.3,120.01960784313725,-263.5098039215686,-279.0,37.21,-14.93,28.08
1251.35,200.01960784313727,-247.50980392156862,-264.0,6.83,-23.68,26.16
1251.4,-188.49019607843138,199.0,-64.0,22.19,-25.71,23.64
1251.45,-299.4901960784314,-165.50980392156862,-110.0,32.59,-37.4,13.63
1251.5,-252.49019607843138,-198.50980392156862,-79.0,42.0,-34.63,-8.45
1251.55,247.01960784313727,-51.509803921568626,-203.0,54.32,-28.47,9.01
1251.6,-283.4901960784314,46.490196078431374,-295.0,168.46,-46.36,32.84
1251.65,-315.4901960784314,111.49019607843137,239.50980392156862,115.75,-38.8,38.37
1251.7,-315.4901960784314,-165.50980392156862,224.50980392156862,98.32,-29.07,34.7
1251.75,-252.49019607843138,-100.50980392156863,316.5098039215686,19.22,-6.35,16.74
1251.8,-252.49019607843138,-214.50980392156862,-233.0,5.78,25.38,-6.63
1251.85,-77.49019607843137,-100.50980392156863,-295.0,-15.98,45.23,-32.49
1251.9,34.509803921568626,-280.5098039215686,-264.0,40.25,58.18,-58.22
1251.95,-61.490196078431374,-182.50980392156862,-172.0,147.11,33.36,-45.02
1252.0,-124.49019607843137,95.49019607843137,178.50980392156862,113.33,26.05,-24.62
1252.05,-236.49019607843138,-263.5098039215686,239.50980392156862,-4.47,41.45,-8.34
1252.1,-315.4901960784314,84.0,301.5098039215686,-52.14,34.62,-2.5
1252.15,-252.49019607843138,3.0,301.5098039215686,-19.17,11.77,-0.71
1252.2,-172.49019607843138,232.0,209.50980392156862,0.98,-10.8,-5.79
1252.25,-93.49019607843137,166.0,163.50980392156862,14.95,-32.18,-15.1
1252.3,-124.49019607843137,133.0,163.50980392156862,42.67,-45.27,-14.29
1252.35,-220.49019607843138,133.0,24.50980392156863,60.13,-46.04,-2.92
1252.4,-172.49019607843138,150.0,39.509803921568626,34.72,-35.75,-1.38
1252.45,-140.49019607843138,52.0,116.50980392156863,19.01,-17.13,-2.5
1252.5,-140.49019607843138,68.0,132.50980392156862,32.87,-13.46,0.47
1252.55,-124.49019607843137,166.0,132.50980392156862,39.94,-22.0,10.83
1252.6,-108.49019607843137,183.0,86.50980392156863,53.52,-45.31,-22.97
1252.65,-220.49019607843138,199.0,116.50980392156863,53.73,-7.12,-11.14
1252.7,-101.98039215686275,248.0,-67.49019607843137,102.52,9.77,44.11
1252.75,-267.4901960784314,-214.50980392156862,-6.490196078431373,37.7,41.62,57.62
1252.8,216.01960784313727,68.0,-310.0,-45.7,64.13,57.17
1252.85,-6.980392156862745,117.0,301.5098039215686,-2.19,52.58,81.39
1252.9,104.01960784313725,-280.5098039215686,270.5098039215686,-2.93,38.44,94.86
1252.95,263.01960784313724,232.0,-218.0,-26.76,17.3,81.35
1253.0,-220.49019607843138,133.0,-203.0,-23.09,-0.02,43.66
1253.05,-188.49019607843138,133.0,-233.0,21.6,-4.08,-1.27
1253.1,-252.49019607843138,199.0,-310.0,35.67,-1.38,-20.07
1253.15,-267.4901960784314,183.0,286.5098039215686,2.1,2.63,-29.8
1253.2,-267.4901960784314,101.0,255.50980392156862,-53.33,-5.76,-67.74
1253.25,-188.49019607843138,19.0,270.5098039215686,-49.02,-15.45,-109.95
1253.3,-315.4901960784314,150.0,178.50980392156862,30.17,-22.56,-94.02
1253.35,263.01960784313724,-312.5098039215686,39.509803921568626,52.33,-29.35,-49.22
1253.4,-188.49019607843138,264.0,-6.490196078431373,-3.98,-24.38,-34.24
1253.45,-156.49019607843138,52.0,55.509803921568626,-26.34,-11.08,-29.27
1253.5,-315.4901960784314,84.0,-21.49019607843137,16.73,5.78,6.73
1253.55,-204.49019607843138,297.0,-160.49019607843138,-10.56,16.63,25.6
1253.6,-77.49019607843137,117.0,24.50980392156863,-52.28,22.16,30.18
1253.65,-93.49019607843137,35.0,116.50980392156863,-43.6,12.19,39.53
1253.7,-156.49019607843138,133.0,101.50980392156863,2.91,-5.34,52.51
1253.75,-124.49019607843137,199.0,86.50980392156863,27.93,-19.34,59.48
1253.8,-188.49019607843138,166.0,101.50980392156863,23.91,-23.15,57.1
1253.85,-172.49019607843138,84.0,39.509803921568626,35.28,-27.7,51.92
1253.9,-108.49019607843137,84.0,55.509803921568626,78.37,-36.66,45.83
1253.95,-172.49019607843138,313.0,-6.490196078431373,187.15,-33.93,48.21
1254.0,311.01960784313724,95.49019607843137,-160.49019607843138,264.57,10.05,107.71
1254.05,311.01960784313724,95.49019607843137,-144.49019607843138,236.95,39.98,137.25
1254.1,-188.49019607843138,-231.50980392156862,55.509803921568626,223.55,46.49,139.63
1254.15,-188.49019607843138,-133.50980392156862,-36.490196078431374,180.6,56.46,123.74
1254.2,-204.49019607843138,-214.50980392156862,-83.49019607843137,130.41,68.12,103.82
1254.25,-140.49019607843138,-296.5098039215686,-52.490196078431374,80.01,73.47,85.62
1254.3,-93.49019607843137,264.0,24.50980392156863,67.45,63.99,78.69
1254.35,-29.49019607843137,232.0,24.50980392156863,60.17,46.0,70.19
1254.4,81.50980392156863,133.0,9.509803921568627,49.53,30.84,58.64
1254.45,81.50980392156863,52.0,-98.49019607843137,37.66,18.0,41.28
1254.5,97.50980392156863,-13.0,-160.49019607843138,35.88,1.83,17.41
1254.55,65.50980392156863,-29.0,-236.49019607843138,10.68,-3.38,-3.51
1254.6,18.50980392156863,-62.0,-237.49019607843138,11.13,-0.82,-0.75
1254.65,49.509803921568626,-62.0,-252.49019607843138,19.57,1.65,8.31
1254.7,177.50980392156862,-127.0,-221.49019607843138,-3.42,-0.89,-1.55
1254.75,177.50980392156862,-143.0,-190.49019607843138,-22.39,-0.23,1.41
1254.8,224.50980392156862,-78.0,-160.49019607843138,-20.92,-6.88,15.1
1254.85,304.5098039215686,-78.0,-160.49019607843138,-26.52,-10.76,23.01
1254.9,304.5098039215686,-45.0,-144.49019607843138,-53.15,-17.97,21.61
1254.95,240.50980392156862,-45.0,-98.49019607843137,-65.02,-27.49,28.29
1255.0,193.50980392156862,52.0,-175.49019607843138,-57.25,-37.5,40.19
1255.05,177.50980392156862,101.0,-221.49019607843138,-44.3,-39.99,42.99
1255.1,208.50980392156862,133.0,-267.4901960784314,30.03,-49.16,42.36
1255.15,145.50980392156862,313.0,267.01960784313724,11.73,-41.42,46.67
1255.2,2.5098039215686274,150.0,236.01960784313727,69.41,-40.3,63.68
1255.25,177.50980392156862,264.0,-313.4901960784314,122.47,-41.84,63.05
1255.3,145.50980392156862,-231.50980392156862,282.01960784313724,112.63,-26.37,61.05
1255.35,18.50980392156863,297.0,282.01960784313724,104.16,0.29,63.26
1255.4,-45.490196078431374,-296.5098039215686,221.01960784313727,84.39,25.52,64.59
1255.45,2.5098039215686274,248.0,-283.4901960784314,81.8,38.44,59.76
1255.5,65.50980392156863,232.0,-206.49019607843138,72.66,35.78,45.62
1255.55,129.50980392156862,101.0,-129.49019607843138,52.75,22.34,25.42
1255.6,81.50980392156863,101.0,-190.49019607843138,0.77,38.26,24.23
1255.65,49.509803921568626,-45.0,-190.49019607843138,35.95,26.15,40.37
1255.7,177.50980392156862,-13.0,-113.49019607843137,12.11,12.15,27.28
1255.75,97.50980392156863,-143.0,-175.49019607843138,1.86,8.13,6.07
1255.8,65.50980392156863,-143.0,-190.49019607843138,-7.76,6.83,-3.55
1255.85,145.50980392156862,-241.0,-129.49019607843138,-19.1,-5.51,-12.12
1255.9,193.50980392156862,-225.0,-113.49019607843137,-52.66,-12.9,-21.92
1255.95,224.50980392156862,-274.0,-144.49019607843138,-91.13,-8.17,-42.54
1256.0,240.50980392156862,286.5098039215686,-175.49019607843138,-159.97,1.13,-77.15
1256.05,240.50980392156862,286.5098039215686,-206.49019607843138,-192.21,12.08,-92.76
1256.1,320.5098039215686,-209.0,-252.49019607843138,-210.69,22.55,-94.13
1256.15,-290.0,35.0,-267.4901960784314,-256.36,39.84,-85.1
1256.2,304.5098039215686,297.0,-206.49019607843138,-204.6,49.18,-82.3
1256.25,304.5098039215686,13.490196078431373,-113.49019607843137,-123.64,51.18,-64.76
1256.3,256.5098039215686,226.49019607843138,9.509803921568627,-44.44,44.25,-51.81
1256.35,208.50980392156862,209.49019607843138,116.50980392156863,-1.28,32.17,-48.7
1256.4,49.509803921568626,128.49019607843138,239.50980392156862,28.0,12.89,-47.33
1256.45,-45.490196078431374,-2.5098039215686274,286.5098039215686,73.4,-3.38,-45.79
1256.5,-156.49019607843138,-67.50980392156863,178.50980392156862,3.22,-11.29,-15.13
1256.55,-220.49019607843138,-247.50980392156862,178.50980392156862,-8.98,-20.04,4.6
1256.6,279.01960784313724,-231.50980392156862,9.509803921568627,99.02,-40.9,24.44
1256.65,-315.4901960784314,-100.50980392156863,116.50980392156863,170.14,-27.77,16.92
1256.7,-252.49019607843138,-263.5098039215686,-52.490196078431374,65.07,-10.87,22.24
1256.75,-299.4901960784314,84.0,-83.49019607843137,40.95,-11.36,41.42
1256.8,-267.4901960784314,-149.50980392156862,163.50980392156862,3.71,1.83,-4.88
1256.85,-236.49019607843138,-94.0,-37.490196078431374,-33.27,9.21,6.77
1256.9,-61.490196078431374,264.0,-283.4901960784314,-63.58,-0.96,-6.21
1256.95,-29.49019607843137,-29.0,-21.49019607843137,6.76,-18.32,14.19
1257.0,-188.49019607843138,117.0,-52.490196078431374,4.94,-9.64,16.32
1257.05,295.01960784313724,199.0,224.50980392156862,-9.23,-2.26,17.34
1257.1,-220.49019607843138,183.0,9.509803921568627,-69.85,36.23,18.39
1257.15,-77.49019607843137,-100.50980392156863,-113.49019607843137,-103.55,43.16,-22.1
1257.2,240.50980392156862,-100.50980392156863,-6.490196078431373,6.27,24.75,-48.63
1257.25,304.5098039215686,-165.50980392156862,255.50980392156862,-59.07,-13.07,-67.11
1257.3,-275.0,-214.50980392156862,86.50980392156863,34.62,-70.3,-32.18
1257.35,-116.0,-35.509803921568626,-187.0,-49.51,-15.73,13.73
1257.4,256.5098039215686,30.49019607843137,-313.4901960784314,-79.02,5.19,13.94
1257.45,-13.490196078431373,-84.50980392156863,82.01960784313725,-55.64,-20.21,-14.26
1257.5,18.50980392156863,232.0,178.50980392156862,-187.73,-35.37,-42.78
1257.55,2.5098039215686274,84.0,301.5098039215686,-94.21,-52.73,-38.72
1257.6,49.509803921568626,46.490196078431374,-279.0,3.75,-39.29,-29.9
1257.65,-124.49019607843137,193.49019607843138,301.5098039215686,-47.97,5.15,-32.32
1257.7,-172.49019607843138,-51.509803921568626,-175.49019607843138,-131.41,6.38,-33.47
1257.75,-45.490196078431374,-296.5098039215686,-187.0,12.39,5.96,-38.97
1257.8,-45.490196078431374,79.49019607843137,-141.0,15.82,-15.28,-30.71
1257.85,-236.49019607843138,-231.50980392156862,73.0,-82.76,-40.06,-21.57
1257.9,279.01960784313724,-231.50980392156862,166.0,73.99,-26.55,5.23
1257.95,263.01960784313724,79.49019607843137,-279.0,9.8,-22.73,10.51
1258.0,-124.49019607843137,199.0,-64.0,-81.4,-8.52,7.71
1258.05,216.01960784313727,30.49019607843137,119.0,-8.95,10.79,16.67
1258.1,200.01960784313727,-220.01960784313727,286.5098039215686,18.48,-13.39,43.03
1258.15,-117.98039215686275,-67.50980392156863,-33.0,14.56,-18.04,56.85
1258.2,-172.49019607843138,258.4901960784314,-203.0,13.97,-49.4,54.23
1258.25,18.50980392156863,62.490196078431374,58.0,32.62,-82.02,81.32
1258.3,18.50980392156863,-302.01960784313724,58.0,48.37,-109.74,101.51
1258.35,2.5098039215686274,307.4901960784314,135.0,153.69,-128.71,135.95
1258.4,104.01960784313725,-57.01960784313726,273.0,188.62,-99.03,113.1
1258.45,-315.4901960784314,209.49019607843138,12.0,172.27,-60.01,73.23
1258.5,-20.0,-198.50980392156862,43.0,-188.36,-36.31,111.56
1258.55,-282.5098039215686,-2.5098039215686274,153.49019607843138,91.04,-40.62,124.89
1258.6,161.50980392156862,-187.01960784313727,190.01960784313727,69.48,-85.07,60.0
1258.65,42.0,-214.50980392156862,-187.0,64.44,-91.89,25.28
1258.7,65.50980392156863,111.49019607843137,273.0,39.2,-111.67,-30.29
1258.75,240.50980392156862,226.49019607843138,120.0,48.34,-132.46,-18.42
1258.8,-100.0,242.49019607843138,286.5098039215686,58.42,-112.93,13.8
1258.85,90.0,-302.01960784313724,-310.0,66.71,-101.83,35.43
1258.9,-179.0,-253.01960784313727,193.50980392156862,84.67,-84.82,63.29
1258.95,193.50980392156862,-187.01960784313727,-160.49019607843138,-7.51,-169.24,-12.61
1259.0,-20.0,-241.0,181.0,-34.04,-113.49,-9.64
1259.05,113.50980392156863,-171.01960784313727,116.50980392156863,-53.05,-51.05,-0.4
1259.1,304.5098039215686,209.49019607843138,270.5098039215686,-2.19,-17.69,10.13
1259.15,113.50980392156863,258.4901960784314,86.50980392156863,-10.0,-32.71,-10.44
1259.2,-275.0,128.49019607843138,-310.0,-16.58,-25.29,-9.6
1259.25,320.5098039215686,226.49019607843138,-249.0,-31.0,-5.2,4.39
1259.3,-259.0,209.49019607843138,-141.0,-38.8,8.72,10.97
1259.35,-227.0,258.4901960784314,-172.0,-26.31,8.97,6.63
1259.4,-179.0,291.4901960784314,-233.0,-17.49,5.43,12.51
1259.45,-116.0,291.4901960784314,-295.0,0.42,5.78,19.75
1259.5,-36.0,-318.01960784313724,-295.0,4.2,8.93,23.5
1259.55,11.0,-302.01960784313724,-218.0,-3.7,16.88,22.27
1259.6,-131.0,8.980392156862745,-141.0,30.56,5.64,35.96
1259.65,240.50980392156862,73.98039215686275,-249.0,31.64,-27.74,14.75
1259.7,-52.0,258.4901960784314,273.0,27.51,-24.52,22.76
1259.75,320.5098039215686,-286.01960784313724,43.0,30.56,-20.28,32.56
1259.8,-179.0,275.4901960784314,12.0,28.35,-22.84,24.48
1259.85,-52.0,62.490196078431374,-49.0,20.48,-23.33,8.31
1259.9,-100.0,79.49019607843137,-33.0,-4.05,-16.68,-12.72
1259.95,-52.0,62.490196078431374,-49.0,-3.35,-11.08,-20.59
1260.0,-36.0,177.49019607843138,-110.0,1.16,-6.28,-15.1
1260.05,-68.0,-286.01960784313724,-156.0,2.14,2.35,2.29
1260.1,-147.0,-220.01960784313727,-110.0,8.96,15.97,8.45
1260.15,-163.0,-286.01960784313724,-141.0,-21.79,50.76,2.15
1260.2,320.5098039215686,-171.01960784313727,-64.0,-39.71,38.44,18.91
1260.25,208.50980392156862,-187.01960784313727,-110.0,-22.77,38.12,1.83
1260.3,256.5098039215686,307.4901960784314,-264.0,-15.42,43.83,-14.75
1260.35,-227.0,95.49019607843137,-203.0,-11.22,51.88,-19.44
1260.4,-147.0,46.490196078431374,-95.0,-21.48,62.76,-21.43
1260.45,11.0,30.49019607843137,-95.0,-26.38,56.88,-20.52
1260.5,58.0,193.49019607843138,-203.0,-20.85,28.99,-8.76
1260.55,58.0,-302.01960784313724,-156.0,-6.08,-14.19,1.27
1260.6,42.0,-318.01960784313724,-156.0,-13.57,-14.33,0.54
1260.65,-20.0,-269.01960784313724,-110.0,-7.9,-8.42,8.06
1260.7,11.0,-138.01960784313727,-126.0,-1.18,-23.05,18.0
1260.75,-68.0,89.98039215686275,-110.0,23.24,-52.24,36.48
1260.8,-259.0,73.98039215686275,-156.0,40.39,-57.0,15.17
1260.85,-211.0,-253.01960784313727,58.0,42.81,-55.39,8.13
1260.9,304.5098039215686,291.4901960784314,166.0,46.34,-53.29,11.28
1260.95,-211.0,177.49019607843138,58.0,45.82,-43.8,6.28
1261.0,-100.0,13.490196078431373,-33.0,29.75,-33.79,-6.56
1261.05,-84.0,-2.5098039215686274,-3.0,18.59,-22.31,-25.42
1261.1,-100.0,-2.5098039215686274,-64.0,10.01,-4.43,-20.77
1261.15,-211.0,177.49019607843138,-95.0,10.01,17.79,3.06
1261.2,-243.0,-220.01960784313727,-218.0,8.23,42.57,18.25
1261.25,-290.0,-204.01960784313727,-203.0,-19.55,76.55,8.1
1261.3,-259.0,-155.01960784313727,-80.0,-43.88,58.04,24.72
1261.35,129.50980392156862,-122.01960784313725,-172.0,-11.05,30.6,-1.13
1261.4,-179.0,128.49019607843138,-295.0,-5.48,44.18,-21.75
1261.45,-131.0,-2.5098039215686274,-233.0,-24.66,54.99,-24.83
1261.5,-84.0,-35.509803921568626,-64.0,-37.54,68.78,-26.93
1261.55,-4.0,46.490196078431374,-126.0,-27.53,59.09,-16.15
1261.6,58.0,193.49019607843138,-218.0,-19.34,12.4,-4.04
1261.65,122.0,291.4901960784314,-218.0,-13.74,-16.75,1.31
1261.7,122.0,-269.01960784313724,-310.0,-8.35,-26.93,11.81
1261.75,74.0,-155.01960784313727,-187.0,13.34,-53.95,14.05
1261.8,217.0,-106.01960784313725,-141.0,19.39,-77.33,12.19
1261.85,-100.0,171.98039215686273,-126.0,39.94,-120.21,25.6
1261.9,-163.0,-40.01960784313726,-79.0,45.29,-113.07,8.73
1261.95,-68.0,242.49019607843138,58.0,31.33,-84.68,13.38
1262.0,-227.0,258.4901960784314,181.0,21.77,-64.1,16.36
1262.05,-290.0,160.49019607843138,58.0,10.26,-54.48,1.69
1262.1,-179.0,13.490196078431373,-3.0,6.48,-42.86,-15.87
1262.15,-116.0,30.49019607843137,-110.0,10.22,-29.84,-22.66
1262.2,-131.0,95.49019607843137,-95.0,-1.63,-9.22,-17.02
1262.25,-179.0,242.49019607843138,-64.0,-2.4,23.91,-3.48
1262.3,-306.0,-138.01960784313727,-233.0,1.54,44.91,10.2
1262.35,-227.0,-220.01960784313727,-156.0,-11.96,84.92,3.58
1262.4,129.50980392156862,-122.01960784313725,-172.0,-34.39,65.25,12.86
1262.45,224.50980392156862,242.49019607843138,-80.0,-20.71,57.13,-8.69
1262.5,-179.0,79.49019607843137,-156.0,-34.85,64.97,-28.36
1262.55,-84.0,62.490196078431374,-49.0,-33.87,71.55,-20.98
1262.6,-100.0,177.49019607843138,-156.0,-30.44,67.59,-20.14
1262.65,58.0,177.49019607843138,-172.0,-22.91,45.54,-17.02
1262.7,42.0,209.49019607843138,-141.0,-15.77,19.75,-12.19
1262.75,74.0,226.49019607843138,-218.0,-21.09,1.51,-4.91
1262.8,154.0,-269.01960784313724,-95.0,-14.09,3.12,0.89
1262.85,90.0,24.980392156862745,-187.0,-6.25,-21.26,5.89
1262.9,-163.0,-258.52941176470586,-79.0,23.03,-83.91,13.24
1262.95,-147.0,-73.01960784313725,-49.0,58.56,-122.03,-2.01
1263.0,-179.0,209.49019607843138,58.0,44.14,-95.92,0.15
1263.05,-211.0,177.49019607843138,289.0,18.76,-71.56,11.84
1263.1,-195.0,128.49019607843138,227.0,16.21,-67.22,13.07
1263.15,-116.0,79.49019607843137,135.0,17.85,-69.18,7.57
1263.2,-147.0,95.49019607843137,58.0,14.14,-59.62,0.26
1263.25,-179.0,128.49019607843138,27.0,16.07,-44.29,-3.48
1263.3,-147.0,226.49019607843138,-18.0,10.26,-12.27,4.32
1263.35,304.5098039215686,-187.01960784313727,-79.0,21.53,36.65,19.12
1263.4,-275.0,-89.01960784313725,-126.0,-9.02,64.51,23.88
1263.45,65.50980392156863,24.980392156862745,-126.0,-22.0,23.46,22.66
1263.5,288.5098039215686,209.49019607843138,-79.0,-13.85,17.4,-6.14
1263.55,-259.0,111.49019607843137,-141.0,-21.51,24.54,-12.19
1263.6,-147.0,95.49019607843137,-18.0,-26.62,27.13,-14.78
1263.65,-52.0,62.490196078431374,-49.0,-29.53,21.22,-17.76
1263.7,42.0,95.49019607843137,-126.0,-13.29,5.26,-13.49
1263.75,27.0,258.4901960784314,-233.0,2.84,-22.56,-6.52
1263.8,122.0,307.4901960784314,-233.0,3.75,-34.25,6.07
1263.85,42.0,-220.01960784313727,-80.0,0.0,-41.53,9.25
1263.9,201.0,-155.01960784313727,-33.0,4.1,-61.76,8.34
1263.95,-84.0,220.98039215686273,12.0,13.62,-100.15,25.63
1264.0,-259.0,8.980392156862745,-33.0,44.24,-113.98,0.61
1264.05,-68.0,275.4901960784314,135.0,36.58,-94.03,10.65
1264.1,272.5098039215686,-318.01960784313724,273.0,33.74,-82.76,9.95
1264.15,-275.0,128.49019607843138,166.0,24.43,-73.06,0.29
1264.2,-179.0,-35.509803921568626,119.0,12.29,-57.24,-4.14
1264.25,-147.0,30.49019607843137,27.0,11.52,-42.02,-9.11
1264.3,-163.0,128.49019607843138,-49.0,10.26,-15.07,-6.8
1264.35,-116.0,226.49019607843138,-79.0,0.95,18.21,7.43
1264.4,272.5098039215686,-187.01960784313727,-95.0,2.31,49.29,17.55
1264.45,-211.0,-89.01960784313725,-156.0,-23.96,63.88,20.56
1264.5,65.50980392156863,73.98039215686275,-95.0,-19.62,19.19,15.2
1264.55,-290.0,275.4901960784314,-156.0,-12.24,29.76,-10.16
1264.6,-227.0,128.49019607843138,-187.0,-19.83,37.88,-16.08
1264.65,-84.0,-18.50980392156863,-64.0,-22.49,49.67,-14.47
1264.7,-68.0,46.490196078431374,-110.0,-24.14,48.73,-18.88
1264.75,42.0,79.49019607843137,-126.0,-29.11,21.39,-16.39
1264.8,42.0,177.49019607843138,-110.0,-20.6,-30.92,-15.31
1264.85,138.0,291.4901960784314,-80.0,-5.76,-38.17,2.04
1264.9,-20.0,-106.01960784313725,-172.0,17.12,-38.94,11.32
1264.95,201.0,-138.01960784313727,-95.0,3.05,-50.59,17.09
1265.0,-36.0,138.98039215686273,-3.0,20.09,-80.69,31.51
1265.05,-195.0,-40.01960784313726,12.0,40.6,-77.4,2.85
1265.1,-179.0,275.4901960784314,104.0,35.98,-73.03,8.48
1265.15,240.50980392156862,307.4901960784314,196.0,34.48,-72.4,4.0
1265.2,-195.0,111.49019607843137,150.0,26.64,-57.91,-2.29
1265.25,-163.0,-2.5098039215686274,12.0,7.77,-40.27,-10.37
1265.3,-100.0,30.49019607843137,-3.0,7.6,-14.58,-15.1
1265.35,-131.0,128.49019607843138,-79.0,1.02,6.94,-15.69
1265.4,-131.0,275.4901960784314,-79.0,0.77,28.99,-0.78
1265.45,-275.0,-171.01960784313727,-126.0,1.47,63.99,10.65
1265.5,-243.0,24.980392156862745,-156.0,-12.83,59.79,29.66
1265.55,129.50980392156862,57.98039215686274,-126.0,-15.07,29.23,14.12
1265.6,-227.0,177.49019607843138,-110.0,-23.05,35.01,-8.38
1265.65,-243.0,95.49019607843137,-172.0,-33.94,41.8,-16.32
1265.7,-52.0,30.49019607843137,-156.0,-16.12,47.5,-12.23
1265.75,27.0,79.49019607843137,-156.0,-19.1,52.3,-16.67
1265.8,-36.0,128.49019607843138,-218.0,-20.64,24.75,-22.55
1265.85,11.0,193.49019607843138,-95.0,-14.23,-3.94,-20.1
1265.9,58.0,307.4901960784314,-172.0,-13.71,-16.33,-3.27
1265.95,74.0,-171.01960784313727,-126.0,-5.31,-35.47,11.6
1266.0,249.0,-220.01960784313727,-95.0,-11.15,-49.93,28.96
1266.05,-36.0,171.98039215686273,-95.0,12.32,-68.69,39.84
1266.1,-195.0,8.980392156862745,-3.0,29.96,-58.68,9.18
1266.15,-100.0,291.4901960784314,58.0,30.94,-49.79,11.18
1266.2,208.50980392156862,-253.01960784313727,166.0,35.7,-53.81,3.9
1266.25,-290.0,193.49019607843138,150.0,32.55,-46.78,-8.59
1266.3,-147.0,13.490196078431373,-3.0,27.9,-32.85,-16.18
1266.35,-52.0,62.490196078431374,-33.0,28.74,-18.46,-20.66
1266.4,-52.0,79.49019607843137,-79.0,16.42,-6.6,-26.23
1266.45,-36.0,160.49019607843138,-80.0,-3.24,13.31,-15.83
1266.5,-195.0,-286.01960784313724,-110.0,7.49,33.68,3.93
1266.55,-131.0,-138.01960784313727,-233.0,-15.14,57.27,12.58
1266.6,288.5098039215686,40.98039215686274,-218.0,-26.24,34.31,30.01
1266.65,272.5098039215686,-171.01960784313727,-95.0,-22.7,30.77,8.24
1266.7,320.5098039215686,160.49019607843138,-156.0,-22.32,35.5,-19.47
1266.75,-275.0,13.490196078431373,-172.0,-20.71,39.66,-33.26
1266.8,-195.0,46.490196078431374,-172.0,-11.89,44.77,-37.08
1266.85,-84.0,79.49019607843137,-187.0,-16.93,42.88,-36.59
1266.9,-52.0,193.49019607843138,-203.0,-11.96,24.12,-26.82
1266.95,-52.0,-302.01960784313724,-141.0,-4.15,7.04,-11.11
1267.0,-36.0,291.4901960784314,-233.0,-7.9,10.12,4.53
1267.05,-4.0,291.4901960784314,-110.0,-3.03,5.89,15.2
1267.1,11.0,258.4901960784314,-141.0,-26.97,-7.96,12.12
1267.15,11.0,-138.01960784313727,-3.0,-30.37,-23.89,52.93
1267.2,-290.0,302.98039215686276,-249.0,-5.76,-30.22,74.46
1267.25,-147.0,155.98039215686273,-249.0,21.21,-23.01,90.0
1267.3,-259.0,-40.01960784313726,73.0,53.9,-4.88,117.86
1267.35,-211.0,-57.01960784313726,-3.0,44.38,7.74,128.32
1267.4,-52.0,-302.01960784313724,27.0,48.62,23.25,117.12
1267.45,90.0,209.49019607843138,-49.0,67.41,38.54,97.56
1267.5,42.0,193.49019607843138,-110.0,56.14,59.05,56.47
1267.55,201.0,95.49019607843137,-141.0,25.73,77.11,18.6
1267.6,201.0,46.490196078431374,-18.0,13.55,76.48,2.67
1267.65,74.0,46.490196078431374,-187.0,-0.41,85.48,2.53
1267.7,27.0,177.49019607843138,-64.0,3.47,82.26,-11.46
1267.75,74.0,13.490196078431373,73.0,10.75,50.51,-16.46
1267.8,138.0,95.49019607843137,-33.0,-7.41,49.6,14.85
1267.85,253.52941176470588,-187.01960784313727,186.52941176470588,13.97,48.52,10.44
1267.9,42.0,95.49019607843137,-95.0,33.53,46.52,-1.45
1267.95,-27.50980392156863,-84.50980392156863,286.5098039215686,37.49,37.6,36.52
1268.0,25.019607843137255,134.47058823529412,236.01960784313727,72.77,25.28,-19.65
1268.05,201.0,-133.50980392156862,-49.0,58.31,28.29,10.97
1268.1,258.4901960784314,242.49019607843138,-141.0,70.81,16.88,4.91
1268.15,226.49019607843138,-116.50980392156863,316.5098039215686,-29.77,60.7,-10.69
1268.2,-313.5098039215686,144.49019607843138,-172.0,-40.55,29.55,-8.97
1268.25,290.4901960784314,144.49019607843138,-264.0,-96.34,45.82,-37.92
1268.3,35.490196078431374,-182.50980392156862,286.5098039215686,47.04,34.41,-44.67
1268.35,-177.01960784313727,-286.01960784313724,89.0,23.94,56.74,-107.5
1268.4,58.0,-214.50980392156862,-126.0,98.7,47.96,-111.7
1268.45,-11.509803921568627,285.98039215686276,43.0,131.57,31.19,-122.41
1268.5,42.0,307.4901960784314,-126.0,-110.9,18.17,-13.17
1268.55,311.01960784313724,57.98039215686274,-264.0,118.51,-47.48,-10.76
1268.6,-29.49019607843137,264.0,255.50980392156862,182.0,-84.3,37.43
1268.65,49.509803921568626,281.0,-172.0,285.08,-92.38,29.2
1268.7,97.50980392156863,183.0,39.509803921568626,306.78,-111.6,-0.61
1268.75,288.5098039215686,281.0,209.50980392156862,59.96,-131.83,-75.68
1268.8,177.50980392156862,-62.0,239.50980392156862,-70.34,-137.43,-182.26
1268.85,145.50980392156862,52.0,-221.49019607843138,-83.5,-89.97,-243.89
1268.9,279.01960784313724,-18.50980392156863,-298.4901960784314,-74.05,-40.65,-264.96
1268.95,263.01960784313724,-187.01960784313727,21.019607843137255,-125.5,-14.33,-250.61
1269.0,-204.49019607843138,-187.01960784313727,175.01960784313727,-74.57,-2.29,-194.3
1269.05,34.509803921568626,-138.01960784313727,313.01960784313724,41.72,-41.0,-105.96
1269.1,-195.0,-8.019607843137255,282.01960784313724,106.23,-35.4,-23.18
1269.15,-227.0,275.4901960784314,-283.4901960784314,160.97,-7.89,18.84
1269.2,81.50980392156863,275.4901960784314,-298.4901960784314,92.61,57.86,23.85
1269.25,-204.49019607843138,-165.50980392156862,-267.4901960784314,63.32,94.02,32.74
1269.3,-172.49019607843138,264.0,-267.4901960784314,65.91,111.06,30.36
1269.35,-204.49019607843138,166.0,-221.49019607843138,52.82,117.89,17.65
1269.4,-172.49019607843138,-13.0,-160.49019607843138,24.54,98.15,-2.64
1269.45,-61.490196078431374,-143.0,-52.490196078431374,-35.06,84.95,-29.76
1269.5,-13.490196078431373,-307.0,-6.490196078431373,-27.92,52.72,-52.34
1269.55,113.50980392156863,-225.0,70.50980392156863,-24.24,6.48,-79.81
1269.6,177.50980392156862,-209.0,101.50980392156863,-17.59,-30.78,-91.78
1269.65,129.50980392156862,-127.0,-37.490196078431374,-38.17,-63.72,-111.49
1269.7,65.50980392156863,-127.0,39.509803921568626,-63.93,-91.61,-151.88
1269.75,-108.49019607843137,-45.0,9.509803921568627,-120.35,-90.11,-164.65
1269.8,-283.4901960784314,52.0,-6.490196078431373,-115.24,-107.92,-165.6
1269.85,-204.49019607843138,133.0,39.509803921568626,-150.03,-109.22,-164.09
1269.9,295.01960784313724,52.0,24.50980392156863,-171.1,-95.32,-155.38
1269.95,279.01960784313724,117.0,9.509803921568627,-185.77,-84.4,-150.13
1270.0,-283.4901960784314,101.0,70.50980392156863,-178.38,-79.29,-146.17
1270.05,-299.4901960784314,183.0,9.509803921568627,-185.7,-66.55,-131.19
1270.1,-283.4901960784314,183.0,39.509803921568626,-162.14,-64.56,-102.35
1270.15,-188.49019607843138,264.0,-21.49019607843137,-131.03,-72.05,-75.09
1270.2,-124.49019607843137,264.0,-6.490196078431373,-84.06,-69.95,-41.84
1270.25,-156.49019607843138,264.0,-175.49019607843138,-78.98,-64.14,-14.4
1270.3,-172.49019607843138,199.0,-175.49019607843138,-83.53,-49.44,3.02
1270.35,-315.4901960784314,150.0,-252.49019607843138,-108.03,14.67,58.53
1270.4,263.01960784313724,232.0,-221.49019607843138,-98.55,25.07,104.0
1270.45,-140.49019607843138,313.0,101.50980392156863,-223.15,22.86,86.36
1270.5,-204.49019607843138,166.0,-64.0,-237.53,-3.97,36.45
1270.55,-315.4901960784314,19.0,89.0,-45.63,-31.62,-35.22
1270.6,184.01960784313727,-247.50980392156862,-3.0,24.15,-92.24,-37.18
1270.65,279.01960784313724,-62.0,304.0,-85.0,-23.01,-46.14
1270.7,-6.980392156862745,-29.0,-33.0,49.21,-31.34,-45.58
1270.75,295.01960784313724,68.0,-252.49019607843138,5.71,-12.27,-34.42
1270.8,311.01960784313724,248.0,-264.0,53.97,3.89,-46.77
1270.85,247.01960784313727,-263.5098039215686,27.0,-22.98,8.2,-12.61
1270.9,184.01960784313727,-296.5098039215686,-172.0,-130.01,56.25,31.09
1270.95,152.01960784313727,248.0,-126.0,-38.56,49.71,66.23
1271.0,120.01960784313725,-165.50980392156862,-264.0,35.63,29.27,73.23
1271.05,295.01960784313724,297.0,-52.490196078431374,71.12,36.3,74.81
1271.1,9.019607843137255,-45.0,239.50980392156862,137.55,15.13,53.53
1271.15,152.01960784313727,84.0,-33.0,69.13,-4.46,30.43
1271.2,-267.4901960784314,-160.0,181.0,81.62,-26.27,6.28
1271.25,-172.49019607843138,150.0,-49.0,35.21,-9.29,-17.48
1271.3,-236.49019607843138,35.0,-95.0,56.91,10.51,1.9
1271.35,231.01960784313727,232.0,239.50980392156862,-148.91,52.54,53.6
1271.4,25.019607843137255,52.0,193.50980392156862,-42.58,16.04,88.35
1271.45,120.01960784313725,-296.5098039215686,-160.49019607843138,-17.91,-6.98,62.0
1271.5,88.01960784313725,46.490196078431374,86.50980392156863,-155.77,-30.85,35.29
1271.55,311.01960784313724,-263.5098039215686,-264.0,-71.18,-23.68,24.27
1271.6,34.509803921568626,-51.509803921568626,316.5098039215686,-134.35,-24.62,-1.62
1271.65,161.50980392156862,-312.5098039215686,181.0,26.5,-51.92,5.26
1271.7,288.5098039215686,258.4901960784314,-153.50980392156862,140.0,-20.53,-18.0
1271.75,113.50980392156863,-51.509803921568626,89.0,-36.42,-19.09,-38.09
1271.8,-61.490196078431374,-62.0,58.0,-165.92,8.37,-54.51
1271.85,49.509803921568626,-116.50980392156863,-76.50980392156863,-4.64,-16.89,-21.4
1271.9,-283.4901960784314,-269.01960784313724,-3.0,-82.94,-2.33,-14.85
1271.95,247.01960784313727,-263.5098039215686,-33.0,-59.8,-2.61,-13.91
1272.0,295.01960784313724,-182.50980392156862,243.0,42.28,-1.49,-10.69
1272.05,311.01960784313724,30.49019607843137,243.0,321.62,10.75,-31.97
1272.1,-252.49019607843138,-302.01960784313724,27.0,117.88,35.92,-54.58
1272.15,72.01960784313725,35.0,-292.5098039215686,112.14,39.7,-24.97
1272.2,57.01960784313726,264.0,-80.0,63.6,51.0,0.57
1272.25,200.01960784313727,133.0,-310.0,143.33,42.18,-20.17
1272.3,-156.49019607843138,150.0,178.50980392156862,139.72,28.01,-30.5
1272.35,18.50980392156863,117.0,-233.0,67.76,-14.54,-40.51
1272.4,49.509803921568626,-13.0,-172.0,134.33,-22.28,-28.12
1272.45,-188.49019607843138,248.0,116.50980392156863,15.09,9.91,6.1
1272.5,279.01960784313724,3.0,132.50980392156862,10.54,22.97,15.83
1272.55,-283.4901960784314,117.0,55.509803921568626,-13.81,26.26,7.5
1272.6,-236.49019607843138,-111.0,162.50980392156862,-17.49,16.32,5.19
1272.65,295.01960784313724,19.0,39.509803921568626,37.1,-18.85,6.8
1272.7,311.01960784313724,232.0,163.50980392156862,75.01,-9.19,47.23
1272.75,-315.4901960784314,-116.50980392156863,-36.490196078431374,-9.96,11.66,72.78
1272.8,200.01960784313727,-280.5098039215686,255.50980392156862,-108.8,13.83,88.18
1272.85,311.01960784313724,-312.5098039215686,-280.0,-200.15,12.15,83.0
1272.9,-220.49019607843138,281.0,70.50980392156863,319.51,-11.5,87.27
1272.95,81.50980392156863,199.0,12.0,-180.1,-8.91,72.88
1273.0,-283.4901960784314,-149.50980392156862,-233.0,-166.94,5.01,26.93
1273.05,-93.49019607843137,-296.5098039215686,166.0,-130.89,46.24,-1.03
1273.1,304.5098039215686,-51.509803921568626,-33.0,14.7,38.47,-3.02
1273.15,-163.0,144.49019607843138,-187.0,-272.18,-47.41,-44.18
1273.2,113.50980392156863,-269.01960784313724,-3.0,310.42,-72.89,-125.8
1273.25,184.01960784313727,199.0,-3.0,115.15,-12.9,-109.95
1273.3,317.52941176470586,248.0,9.509803921568627,-14.02,68.29,35.61
1273.35,-181.98039215686273,-263.5098039215686,101.50980392156863,-57.14,92.23,61.4
1273.4,168.01960784313727,35.0,270.5098039215686,-22.25,68.36,50.83
1273.45,311.01960784313724,-182.50980392156862,224.50980392156862,-27.18,23.7,39.25
1273.5,113.50980392156863,-149.50980392156862,-156.0,-15.77,-16.26,29.59
1273.55,34.509803921568626,297.0,58.0,-46.85,-14.16,31.65
1273.6,-140.49019607843138,-247.50980392156862,316.5098039215686,-9.89,0.71,12.79
1273.65,-61.490196078431374,-18.50980392156863,132.50980392156862,-44.86,9.35,31.72
1273.7,97.50980392156863,-214.50980392156862,39.509803921568626,12.46,17.51,19.09
1273.75,-108.49019607843137,-35.509803921568626,-144.49019607843138,-100.82,42.57,16.43
1273.8,129.50980392156862,-182.50980392156862,-67.49019607843137,-24.49,-20.84,54.86
1273.85,-236.49019607843138,258.4901960784314,147.50980392156862,-75.59,-18.22,28.92
1273.9,-315.4901960784314,258.4901960784314,-141.0,-60.47,-25.43,-20.07
1273.95,216.01960784313727,177.49019607843138,-261.5098039215686,-113.88,-17.13,-33.33
1274.0,-204.49019607843138,-51.509803921568626,-18.0,-66.03,-24.83,-37.39
1274.05,65.50980392156863,-133.50980392156862,-64.0,-33.73,-18.78,-44.71
1274.1,49.509803921568626,-149.50980392156862,-249.0,-13.95,-16.01,-48.98
1274.15,34.509803921568626,-149.50980392156862,-95.0,21.35,-9.64,-54.89
1274.2,2.5098039215686274,30.49019607843137,-49.0,-21.79,1.72,-51.04
1274.25,-77.49019607843137,-84.50980392156863,89.0,-61.38,20.06,-40.86
1274.3,-252.49019607843138,111.49019607843137,-64.0,-36.63,31.79,-0.19
1274.35,-252.49019607843138,144.49019607843138,58.0,-50.98,48.83,-10.65
1274.4,200.01960784313727,62.490196078431374,43.0,-5.48,41.38,79.5
1274.45,-236.49019607843138,-269.01960784313724,27.0,-16.54,9.98,83.59
1274.5,-236.49019607843138,30.49019607843137,-3.0,-72.12,2.74,79.88
1274.55,-252.49019607843138,-67.50980392156863,-18.0,-13.88,-10.66,55.07
1274.6,-172.49019607843138,-149.50980392156862,43.0,5.39,17.19,20.91
1274.65,-77.49019607843137,232.0,-280.0,-29.32,18.14,-8.1
1274.7,49.509803921568626,281.0,-49.0,-39.61,23.35,-42.57
1274.75,-61.490196078431374,-247.50980392156862,239.50980392156862,8.44,22.97,-47.02
1274.8,-13.490196078431373,46.490196078431374,-187.0,81.62,-19.55,-0.47
1274.85,65.50980392156863,-236.01960784313727,-33.0,47.39,-17.69,30.25
1274.9,18.50980392156863,242.49019607843138,-264.0,234.92,-35.16,5.3
1274.95,-252.49019607843138,-138.01960784313727,-249.0,163.91,-54.93,-13.66
1275.0,295.01960784313724,-133.50980392156862,73.0,16.14,-20.56,-4.98
1275.05,-220.49019607843138,101.0,-141.0,-21.51,-26.44,-14.47
1275.1,-236.49019607843138,-182.50980392156862,58.0,-26.1,-7.72,-44.57
1275.15,-108.49019607843137,-133.50980392156862,-80.0,-1.56,-3.48,-32.28
1275.2,-61.490196078431374,79.49019607843137,-64.0,-21.34,-2.68,-19.3
1275.25,34.509803921568626,-100.50980392156863,-18.0,-25.29,-0.19,-20.17
1275.3,-45.490196078431374,-165.50980392156862,-18.0,12.74,-27.25,3.79
1275.35,-124.49019607843137,-67.50980392156863,-3.0,192.29,-30.99,52.65
1275.4,263.01960784313724,46.490196078431374,150.0,198.63,-3.52,72.29
1275.45,216.01960784313727,-286.01960784313724,209.50980392156862,208.36,76.31,21.08
1275.5,231.01960784313727,-204.01960784313727,301.5098039215686,76.27,68.19,-7.08
1275.55,247.01960784313727,193.49019607843138,-21.49019607843137,42.74,82.57,-6.1
1275.6,-188.49019607843138,-165.50980392156862,301.5098039215686,-90.36,83.76,-49.68
1275.65,-108.49019607843137,286.5098039215686,316.5098039215686,-260.74,93.46,-40.96
1275.7,65.50980392156863,-231.50980392156862,-83.49019607843137,-8.98,35.78,-0.57
1275.75,304.5098039215686,73.98039215686275,286.5098039215686,108.75,13.31,12.3
1275.8,-147.0,-165.50980392156862,270.5098039215686,198.73,16.35,-22.31
1275.85,81.50980392156863,-18.50980392156863,116.50980392156863,70.7,41.06,-35.68
1275.9,81.50980392156863,84.0,-129.49019607843138,-109.19,105.11,-23.78
1275.95,256.5098039215686,-111.0,190.01960784313727,-207.47,121.56,31.06
1276.0,-84.0,-263.5098039215686,267.01960784313724,-195.36,99.51,95.6
1276.05,-20.0,275.4901960784314,252.01960784313727,-93.86,49.04,145.37
1276.1,-68.0,-106.01960784313725,-144.49019607843138,58.35,12.47,167.77
1276.15,-52.0,-138.01960784313727,163.50980392156862,20.09,12.57,167.0
1276.2,-131.0,-236.01960784313727,224.50980392156862,25.87,16.88,156.15
1276.25,-36.0,-302.01960784313724,316.5098039215686,-54.73,22.3,142.36
1276.3,11.0,62.490196078431374,-110.0,17.4,20.87,91.36
1276.35,58.0,62.490196078431374,-233.0,-5.52,14.43,75.58
1276.4,74.0,-67.50980392156863,-279.0,1.82,10.93,56.43
1276.45,90.0,13.490196078431373,162.50980392156862,11.38,25.77,43.45
1276.5,233.0,62.490196078431374,101.50980392156863,-5.13,38.54,35.78
1276.55,-266.5098039215686,128.49019607843138,86.50980392156863,78.65,48.17,28.29
1276.6,-107.50980392156863,-253.01960784313727,-129.49019607843138,34.76,69.31,16.64
1276.65,-59.509803921568626,95.49019607843137,-52.490196078431374,54.01,47.89,56.4
1276.7,-43.509803921568626,62.490196078431374,9.509803921568627,54.85,31.72,57.06
1276.75,-11.509803921568627,-116.50980392156863,24.50980392156863,35.67,23.81,65.11
1276.8,-91.50980392156863,-312.5098039215686,70.50980392156863,46.03,17.26,75.33
1276.85,-27.50980392156863,264.0,132.50980392156862,9.91,16.88,63.15
1276.9,19.49019607843137,68.0,-249.0,22.4,5.96,70.82
1276.95,19.49019607843137,68.0,116.50980392156863,31.05,-1.7,63.71
1277.0,19.49019607843137,117.0,193.50980392156862,13.41,-1.63,54.37
1277.05,-43.509803921568626,35.0,116.50980392156863,-0.51,-0.72,48.91
1277.1,4.490196078431373,19.0,9.509803921568627,31.75,5.4,43.2
1277.15,147.49019607843138,-13.0,-67.49019607843137,73.99,8.86,16.25
1277.2,-257.01960784313724,-45.0,86.50980392156863,6.41,18.98,6.31
1277.25,-289.01960784313724,-62.0,316.5098039215686,16.94,25.8,-0.15
1277.3,-257.01960784313724,232.0,132.50980392156862,-15.14,-3.38,16.6
1277.35,-320.01960784313724,101.0,86.50980392156863,-7.79,-13.11,19.65
1277.4,163.49019607843138,117.0,55.509803921568626,14.18,-14.51,8.2
1277.45,83.49019607843137,52.0,163.50980392156862,-7.79,-17.97,2.15
1277.5,83.49019607843137,-45.0,178.50980392156862,15.23,-19.86,-1.59
1277.55,83.49019607843137,-62.0,316.5098039215686,24.15,-12.93,-7.47
1277.6,99.49019607843137,-78.0,209.50980392156862,-24.17,3.19,-6.45
1277.65,131.49019607843138,-225.0,255.50980392156862,-12.13,5.05,-4.74
1277.7,258.4901960784314,68.0,70.50980392156863,-101.56,3.51,4.28
1277.75,242.49019607843138,-111.0,209.50980392156862,-42.65,30.95,-50.41
1277.8,-289.01960784313724,19.0,55.509803921568626,30.49,-14.09,-56.57
1277.85,258.4901960784314,166.0,-98.49019607843137,57.47,-5.13,-67.21
1277.9,35.490196078431374,297.0,-175.49019607843138,77.88,2.28,-60.42
1277.95,35.490196078431374,150.0,-52.490196078431374,55.83,9.95,-45.44
1278.0,35.490196078431374,133.0,-36.490196078431374,135.73,24.89,-32.63
1278.05,19.49019607843137,264.0,-113.49019607843137,27.2,6.52,-17.48
1278.1,131.49019607843138,-94.0,286.5098039215686,72.17,-2.47,-4.81
1278.15,67.49019607843137,199.0,-113.49019607843137,58.87,-8.52,14.26
1278.2,163.49019607843138,-62.0,-36.490196078431374,-11.4,12.08,22.06
1278.25,147.49019607843138,-62.0,-21.49019607843137,-49.86,29.13,4.88
1278.3,210.49019607843138,-94.0,-98.49019607843137,-88.36,9.04,9.6
1278.35,-257.01960784313724,19.0,55.509803921568626,-22.39,-5.51,2.22
1278.4,226.49019607843138,297.0,-249.0,8.4,0.36,-14.54
1278.45,163.49019607843138,101.0,209.50980392156862,-5.8,-6.18,-8.69
1278.5,290.4901960784314,232.0,255.50980392156862,30.21,-4.71,-7.01
1278.55,194.49019607843138,133.0,9.509803921568627,-2.82,-3.38,-6.66
1278.6,115.49019607843137,3.0,9.509803921568627,10.08,-12.09,-17.83
1278.65,131.49019607843138,52.0,301.5098039215686,-33.31,-7.51,-25.25
1278.7,83.49019607843137,35.0,224.50980392156862,-4.68,-10.76,-24.79
1278.75,147.49019607843138,166.0,270.5098039215686,31.08,-7.86,-20.8
1278.8,163.49019607843138,133.0,178.50980392156862,66.33,-18.11,-12.09
1278.85,210.49019607843138,297.0,116.50980392156863,107.8,6.45,-7.92
1278.9,163.49019607843138,183.0,-237.49019607843138,84.56,11.84,-15.76
1278.95,274.4901960784314,166.0,-160.49019607843138,104.72,-1.17,-17.97
1279.0,35.490196078431374,166.0,-144.49019607843138,36.61,20.13,-82.82
1279.05,-154.50980392156862,-62.0,178.50980392156862,5.78,18.35,-124.65
1279.1,-170.50980392156862,-78.0,70.50980392156863,24.4,6.52,-157.37
1279.15,-139.50980392156862,117.0,209.50980392156862,30.8,-7.26,-209.56
1279.2,-218.50980392156862,35.0,-310.0,11.73,-19.65,-255.55
1279.25,-313.5098039215686,199.0,301.5098039215686,-81.47,-28.61,-250.86
1279.3,313.0,133.0,-264.0,22.09,-41.53,-245.71
1279.35,27.0,-269.01960784313724,178.50980392156862,47.88,-31.41,-205.88
1279.4,201.0,226.49019607843138,162.50980392156862,52.36,-57.07,-177.67
1279.45,-298.5098039215686,79.49019607843137,9.509803921568627,173.71,-142.85,-144.49
1279.5,-52.0,171.98039215686273,-236.49019607843138,13.09,-116.04,-48.59
1279.55,-227.0,-18.50980392156863,-267.4901960784314,48.44,-123.43,-7.92
1279.6,-147.0,242.49019607843138,190.01960784313727,33.81,-85.94,-6.35
1279.65,129.50980392156862,95.49019607843137,313.01960784313724,21.74,-34.56,6.14
1279.7,-108.49019607843137,-2.5098039215686274,-221.49019607843138,-45.59,2.42,13.21
1279.75,-61.490196078431374,-198.50980392156862,-36.490196078431374,-41.67,9.67,11.32
1279.8,65.50980392156863,-133.50980392156862,24.50980392156863,-16.86,11.91,5.65
1279.85,34.509803921568626,13.490196078431373,24.50980392156863,-19.66,13.27,6.94
1279.9,97.50980392156863,-35.509803921568626,116.50980392156863,-45.38,4.45,13.21
1279.95,145.50980392156862,-2.5098039215686274,101.50980392156863,-65.75,-3.8,19.33
1280.0,193.50980392156862,-2.5098039215686274,132.50980392156862,-77.41,-14.51,12.12
1280.05,240.50980392156862,111.49019607843137,178.50980392156862,-81.57,-16.43,0.33
1280.1,272.5098039215686,62.490196078431374,193.50980392156862,-82.06,-18.43,-6.63
1280.15,272.5098039215686,128.49019607843138,255.50980392156862,-99.07,-20.35,-17.37
1280.2,320.5098039215686,111.49019607843137,316.5098039215686,-95.08,-16.29,-33.65
1280.25,256.5098039215686,177.49019607843138,-233.0,-58.3,-11.18,-40.96
1280.3,240.50980392156862,160.49019607843138,-203.0,-62.08,-12.51,-59.9
1280.35,256.5098039215686,46.490196078431374,-110.0,-96.34,-7.12,-95.56
1280.4,49.509803921568626,-18.50980392156863,-33.0,-120.25,-20.84,-105.89
1280.45,-45.490196078431374,13.490196078431373,-33.0,-35.93,-52.38,-91.36
1280.5,-29.49019607843137,193.49019607843138,-64.0,48.06,-68.83,-66.79
1280.55,-124.49019607843137,46.490196078431374,-203.0,-17.03,-22.8,-53.49
1280.6,231.01960784313727,-214.50980392156862,-218.0,-62.39,3.26,-31.16
1280.65,184.01960784313727,-312.5098039215686,-49.0,-68.76,1.72,-15.9
1280.7,72.01960784313725,-263.5098039215686,-18.0,-58.02,4.73,-13.49
1280.75,136.01960784313727,-296.5098039215686,58.0,-48.57,15.27,-16.92
1280.8,216.01960784313727,297.0,58.0,-52.45,19.78,-25.04
1280.85,184.01960784313727,199.0,43.0,-64.67,27.9,-25.18
1280.9,216.01960784313727,264.0,120.0,-114.75,23.42,-11.6
1280.95,184.01960784313727,84.0,181.0,-48.01,17.19,-14.89
1281.0,-315.4901960784314,-296.5098039215686,27.0,9.59,51.0,-31.09
1281.05,216.01960784313727,150.0,-218.0,77.07,59.19,-33.4
1281.1,-236.49019607843138,-214.50980392156862,-218.0,77.77,49.18,-27.07
1281.15,-108.49019607843137,-100.50980392156863,-64.0,78.68,18.84,-1.38
1281.2,-188.49019607843138,52.0,43.0,85.47,-3.48,8.17
1281.25,-108.49019607843137,281.0,-215.50980392156862,-64.56,30.42,28.89
1281.3,-299.4901960784314,-280.5098039215686,150.0,-76.67,75.19,46.77
1281.35,-299.4901960784314,-18.50980392156863,73.0,-130.36,68.22,56.26
1281.4,-61.490196078431374,-231.50980392156862,-64.0,-23.93,48.59,43.45
1281.45,-315.4901960784314,-149.50980392156862,-79.0,-25.43,27.1,-15.03
1281.5,200.01960784313727,-94.0,-95.0,75.53,1.27,-13.45
1281.55,-70.98039215686275,-258.0,-203.0,-101.59,-0.47,22.59
1281.6,184.01960784313727,-198.50980392156862,227.0,-46.5,-23.22,24.27
1281.65,-45.490196078431374,281.0,-3.0,-65.05,-26.55,64.03
1281.7,25.019607843137255,248.0,-126.0,-17.17,-43.59,55.49
1281.75,168.01960784313727,313.0,-279.0,-28.93,-19.06,43.73
1281.8,120.01960784313725,199.0,-64.0,-10.35,-4.57,48.03
1281.85,311.01960784313724,-280.5098039215686,104.0,-0.93,10.19,89.65
1281.9,-188.49019607843138,307.4901960784314,147.50980392156862,-14.3,1.16,91.68
1281.95,-140.49019607843138,-67.50980392156863,286.5098039215686,39.97,-6.67,87.72
1282.0,216.01960784313727,30.49019607843137,-187.0,52.61,12.15,62.24
1282.05,-93.49019607843137,-116.50980392156863,-3.0,-18.75,24.4,44.22
1282.1,208.50980392156862,-165.50980392156862,181.0,-53.71,55.73,51.11
1282.15,18.50980392156863,-296.5098039215686,-95.0,-53.57,58.6,52.3
1282.2,256.5098039215686,-51.509803921568626,181.0,-74.33,76.8,69.7
1282.25,-45.490196078431374,242.49019607843138,-64.0,-82.2,72.14,50.9
1282.3,256.5098039215686,13.490196078431373,27.0,-46.78,50.93,29.69
1282.35,304.5098039215686,13.490196078431373,270.5098039215686,9.42,11.66,1.69
1282.4,74.0,13.490196078431373,-64.0,-12.73,-0.3,15.17
1282.45,272.5098039215686,-269.01960784313724,89.0,-42.09,13.87,11.35
1282.5,177.50980392156862,-204.01960784313727,181.0,-37.12,36.16,-6.45
1282.55,65.50980392156863,258.4901960784314,196.0,-18.12,42.6,-14.92
1282.6,193.50980392156862,209.49019607843138,304.0,-31.77,62.24,1.03
1282.65,113.50980392156863,-269.01960784313724,-276.5098039215686,-45.87,92.2,11.21
1282.7,129.50980392156862,291.4901960784314,-261.5098039215686,-44.72,109.84,15.41
1282.75,272.5098039215686,144.49019607843138,-215.50980392156862,-49.69,116.91,16.95
1282.8,161.50980392156862,177.49019607843138,-292.5098039215686,-36.91,119.5,15.31
1282.85,193.50980392156862,144.49019607843138,258.0,-28.65,120.55,13.24
1282.9,256.5098039215686,128.49019607843138,212.0,-22.77,123.42,17.58
1282.95,161.50980392156862,226.49019607843138,212.0,-23.82,129.89,27.03
1283.0,161.50980392156862,258.4901960784314,243.0,-25.57,128.28,28.89
1283.05,177.50980392156862,209.49019607843138,196.0,-17.24,119.08,31.23
1283.1,224.50980392156862,258.4901960784314,104.0,-23.86,113.02,35.99
1283.15,208.50980392156862,242.49019607843138,104.0,-18.99,103.29,29.55
1283.2,-290.0,144.49019607843138,27.0,-25.15,89.57,13.94
1283.25,-227.0,79.49019607843137,27.0,-29.91,87.54,-4.11
1283.3,-227.0,209.49019607843138,58.0,-34.53,79.88,-3.02
1283.35,-243.0,-302.01960784313724,43.0,-32.36,72.74,-2.53
1283.4,-195.0,-286.01960784313724,27.0,-21.93,64.86,-8.03
1283.45,-259.0,307.4901960784314,-18.0,-6.78,51.53,-15.24
1283.5,-116.0,193.49019607843138,-33.0,-4.92,47.82,-7.26
1283.55,-179.0,307.4901960784314,-18.0,-2.26,48.2,-6.38
1283.6,-211.0,-253.01960784313727,-49.0,-25.01,41.03,-12.23
1283.65,256.5098039215686,-187.01960784313727,43.0,-14.27,2.95,20.49
1283.7,161.50980392156862,-204.01960784313727,-141.0,-9.96,-1.35,21.36
1283.75,208.50980392156862,95.49019607843137,-187.0,-20.18,4.07,5.65
1283.8,193.50980392156862,46.490196078431374,43.0,-12.73,-3.97,-11.07
1283.85,145.50980392156862,144.49019607843138,-18.0,3.92,-20.98,-11.39
1283.9,161.50980392156862,258.4901960784314,-49.0,5.64,-54.06,-12.54
1283.95,-306.0,160.49019607843138,-33.0,4.27,-81.08,-13.84
1284.0,-243.0,128.49019607843138,-33.0,14.81,-88.81,-12.47
1284.05,-211.0,242.49019607843138,27.0,18.83,-59.24,6.38
1284.1,256.5098039215686,-204.01960784313727,166.0,18.13,-50.49,21.43
1284.15,177.50980392156862,-236.01960784313727,273.0,0.6,-67.25,8.76
1284.2,129.50980392156862,242.49019607843138,289.0,-4.61,-79.71,-2.04
1284.25,256.5098039215686,160.49019607843138,181.0,0.81,-74.11,-7.12
1284.3,-211.0,177.49019607843138,119.0,13.62,-67.25,-4.67
1284.35,-179.0,242.49019607843138,120.0,22.19,-59.76,-2.25
1284.4,-259.0,307.4901960784314,120.0,16.63,-58.64,0.54
1284.45,-259.0,291.4901960784314,258.0,18.76,-56.26,-0.12
1284.5,-243.0,275.4901960784314,227.0,23.49,-55.14,4.39
1284.55,-211.0,275.4901960784314,212.0,30.56,-48.7,10.65
1284.6,-179.0,275.4901960784314,181.0,25.83,-39.25,14.12
1284.65,-179.0,258.4901960784314,196.0,32.76,-42.33,6.94
1284.7,-116.0,209.49019607843138,166.0,28.53,-45.83,0.5
1284.75,-163.0,258.4901960784314,227.0,31.5,-41.7,-4.35
1284.8,-116.0,275.4901960784314,181.0,31.22,-38.87,-14.47
1284.85,-84.0,291.4901960784314,135.0,24.4,-38.03,-29.27
1284.9,-100.0,242.49019607843138,150.0,26.08,-36.38,-35.96
1284.95,-131.0,-286.01960784313724,104.0,21.77,-33.37,-41.94
1285.0,-68.0,-269.01960784313724,150.0,-18.82,-30.22,-24.97
1285.05,113.50980392156863,-24.019607843137255,104.0,-21.58,-50.94,6.87
1285.1,81.50980392156863,-220.01960784313727,-3.0,-26.24,-17.55,18.07
1285.15,-77.49019607843137,242.49019607843138,12.0,-5.06,-12.09,4.49
1285.2,65.50980392156863,62.490196078431374,-18.0,25.76,-32.43,-17.48
1285.25,177.50980392156862,-18.50980392156863,-110.0,21.25,-45.62,-36.41
1285.3,288.5098039215686,-2.5098039215686274,-18.0,15.19,-43.8,-33.86
1285.35,-259.0,160.49019607843138,27.0,6.06,-42.3,-3.65
1285.4,-211.0,-285.01960784313724,58.0,-3.03,-45.1,16.36
1285.45,-227.0,307.4901960784314,73.0,-4.99,-45.52,12.19
1285.5,-227.0,111.49019607843137,-3.0,6.16,-42.3,4.53
1285.55,-259.0,62.490196078431374,-33.0,2.91,-27.07,9.6
1285.6,272.5098039215686,193.49019607843138,43.0,8.58,-15.31,15.66
