rel_time,acc_x,acc_y,acc_z,gyro_x,gyro_y,gyro_z
2770.0,186.0,58.509803921568626,-206.49019607843138,-2.11,4.29,-0.69
2770.05,233.0,41.509803921568626,-175.49019607843138,-0.57,3.83,1.19
2770.1,201.0,90.50980392156863,-221.49019607843138,-27.49,5.9,2.76
2770.15,170.0,58.509803921568626,-190.49019607843138,-8.1,1.8,4.86
2770.2,233.0,74.50980392156863,-236.49019607843138,9.67,-0.92,4.02
2770.25,233.0,90.50980392156863,-252.49019607843138,4.98,0.79,3.32
2770.3,170.0,74.50980392156863,-221.49019607843138,0.68,1.63,3.15
2770.35,217.0,74.50980392156863,-221.49019607843138,2.85,2.05,3.18
2770.4,186.0,58.509803921568626,-206.49019607843138,1.34,1.49,2.34
2770.45,201.0,58.509803921568626,-206.49019607843138,6.1,-1.65,0.94
2770.5,186.0,74.50980392156863,-206.49019607843138,3.16,-2.74,0.73
2770.55,186.0,58.509803921568626,-190.49019607843138,4.32,-3.51,-3.0
2770.6,186.0,25.50980392156863,-175.49019607843138,1.59,-1.41,-7.03
2770.65,201.0,41.509803921568626,-175.49019607843138,2.67,-0.43,-7.76
2770.7,186.0,58.509803921568626,-206.49019607843138,5.23,-0.57,-6.08
2770.75,186.0,74.50980392156863,-206.49019607843138,1.41,-3.02,-4.68
2770.8,201.0,41.509803921568626,-206.49019607843138,2.43,-4.24,-3.88
2770.85,201.0,58.509803921568626,-190.49019607843138,2.01,-1.97,-1.74
2770.9,217.0,74.50980392156863,-190.49019607843138,0.15,0.65,-0.48
2770.95,201.0,74.50980392156863,-160.49019607843138,2.22,0.79,0.24
2771.0,233.0,58.509803921568626,-175.49019607843138,1.06,0.37,0.42
2771.05,201.0,41.509803921568626,-175.49019607843138,1.34,0.47,0.1
2771.1,201.0,74.50980392156863,-206.49019607843138,0.85,1.0,0.07
2771.15,201.0,58.509803921568626,-190.49019607843138,3.83,1.03,-3.91
2771.2,170.0,58.509803921568626,-206.49019607843138,-1.1,1.28,-2.79
2771.25,217.0,58.509803921568626,-175.49019607843138,-2.67,0.12,-2.97
2771.3,217.0,58.509803921568626,-175.49019607843138,-4.25,-0.85,-4.19
2771.35,186.0,58.509803921568626,-175.49019607843138,-0.96,-1.16,-6.4
2771.4,201.0,41.509803921568626,-175.49019607843138,-5.19,-0.81,-6.64
2771.45,217.0,58.509803921568626,-206.49019607843138,-0.15,-3.89,-7.83
2771.5,170.0,74.50980392156863,-190.49019607843138,-10.86,-4.42,-4.82
2771.55,249.0,58.509803921568626,-175.49019607843138,-7.54,-3.79,-5.35
2771.6,217.0,74.50980392156863,-206.49019607843138,-3.13,-4.91,-10.88
2771.65,201.0,90.50980392156863,-206.49019607843138,-0.4,-6.97,-10.11
2771.7,249.0,90.50980392156863,-206.49019607843138,-19.05,-4.7,-16.44
2771.75,249.0,41.509803921568626,-221.49019607843138,-38.48,-5.5,-18.12
2771.8,217.0,107.50980392156863,-98.49019607843137,-10.09,-13.73,-15.6
2771.85,186.0,139.50980392156862,-221.49019607843138,4.95,-22.23,-7.1
2771.9,186.0,172.50980392156862,-237.49019607843138,69.21,-39.28,-5.0
2771.95,58.0,172.50980392156862,-221.49019607843138,54.96,-63.64,-54.63
2772.0,-195.0,-133.50980392156862,-144.49019607843138,-7.57,-54.05,-64.99
2772.05,42.0,-307.0,-249.0,-54.26,-46.21,-151.96
2772.1,19.49019607843137,156.50980392156862,-280.0,35.57,-61.54,-237.19
2772.15,138.0,-78.0,252.01960784313727,23.39,-60.49,-257.42
2772.2,297.0,-192.0,-301.98039215686276,28.47,-72.53,-238.55
2772.25,249.0,-209.0,175.01960784313727,48.42,-73.44,-195.85
2772.3,186.0,303.5098039215686,267.01960784313724,11.25,-46.52,-115.25
2772.35,-266.5098039215686,-241.0,-298.4901960784314,50.59,-12.82,-19.52
2772.4,-234.50980392156862,205.50980392156862,-298.4901960784314,38.34,2.96,23.41
2772.45,201.0,205.50980392156862,313.01960784313724,19.47,7.72,35.84
2772.5,249.0,-176.0,-267.4901960784314,5.12,0.12,42.42
2772.55,265.0,319.5098039215686,147.50980392156862,-27.84,48.84,32.2
2772.6,217.0,-160.0,-193.98039215686273,-4.49,18.85,19.53
2772.65,-220.49019607843138,95.49019607843137,-221.49019607843138,-38.2,22.63,12.77
2772.7,106.0,9.509803921568627,-83.49019607843137,-70.15,21.72,16.87
2772.75,226.49019607843138,-236.49019607843138,-190.49019607843138,-54.19,34.21,-3.84
2772.8,288.5098039215686,-231.50980392156862,52.01960784313726,-22.06,-7.36,-1.74
2772.85,-68.0,74.50980392156863,24.50980392156863,-59.72,13.95,15.96
2772.9,226.49019607843138,-285.4901960784314,113.01960784313725,-1.55,-9.49,-3.91
2772.95,272.5098039215686,-182.50980392156862,236.01960784313727,-16.53,-13.76,-1.95
2773.0,-84.0,221.50980392156862,-298.4901960784314,-14.05,-11.31,-10.7
2773.05,242.49019607843138,276.01960784313724,-252.49019607843138,2.95,-11.87,-19.56
2773.1,208.50980392156862,-149.50980392156862,298.01960784313724,7.89,-12.99,-29.53
2773.15,-68.0,-274.0,-313.4901960784314,27.28,-26.92,-40.63
2773.2,-241.01960784313727,-317.4901960784314,313.01960784313724,32.7,-33.82,-47.17
2773.25,177.50980392156862,-165.50980392156862,-267.4901960784314,20.8,-26.26,-46.86
2773.3,-131.0,205.50980392156862,252.01960784313727,11.7,-28.57,-51.02
2773.35,-305.01960784313724,227.01960784313727,267.01960784313724,41.84,-47.43,-55.26
2773.4,320.5098039215686,-296.5098039215686,-267.4901960784314,-12.68,-51.74,-45.98
2773.45,-84.0,-307.0,-298.4901960784314,14.92,-44.0,-35.17
2773.5,-273.01960784313724,259.01960784313724,190.01960784313727,13.31,-36.62,-30.13
2773.55,304.5098039215686,-231.50980392156862,-236.49019607843138,-9.88,-23.46,-28.13
2773.6,-131.0,-127.0,-298.4901960784314,-2.01,-17.61,-27.29
2773.65,290.4901960784314,-285.4901960784314,-98.49019607843137,7.12,-20.8,-21.73
2773.7,-4.0,-192.0,-267.4901960784314,0.68,-14.32,-7.8
2773.75,-234.50980392156862,254.50980392156862,82.01960784313725,-0.68,-15.3,-18.79
2773.8,233.0,270.5098039215686,70.50980392156863,-0.29,-7.43,-2.09
2773.85,297.0,319.5098039215686,-298.4901960784314,2.99,-1.76,8.75
2773.9,265.0,-176.0,221.01960784313727,1.59,3.06,17.22
2773.95,-282.5098039215686,-290.0,-190.49019607843138,0.57,10.87,24.22
2774.0,281.0,-160.0,-283.4901960784314,-19.23,18.01,32.13
2774.05,-298.5098039215686,-143.0,-298.4901960784314,-15.94,23.19,42.21
2774.1,-313.5098039215686,-143.0,-252.49019607843138,-1.34,25.95,40.56
2774.15,-202.50980392156862,-143.0,-175.49019607843138,2.57,20.74,36.5
2774.2,99.49019607843137,-121.49019607843137,267.01960784313724,13.63,14.72,33.42
2774.25,-98.01960784313725,-285.4901960784314,52.01960784313726,2.29,16.22,29.4
2774.3,-234.50980392156862,215.0,-283.4901960784314,-1.66,20.07,22.12
2774.35,288.5098039215686,-236.01960784313727,39.509803921568626,-4.11,21.33,9.24
2774.4,-195.0,-280.5098039215686,39.509803921568626,-2.15,19.34,2.48
2774.45,194.49019607843138,-56.490196078431374,267.01960784313724,-0.47,12.41,-9.41
2774.5,314.98039215686276,-285.4901960784314,-9.980392156862745,-8.31,22.94,-14.1
2774.55,131.49019607843138,19.0,313.01960784313724,-10.34,27.67,-20.43
2774.6,-179.0,-204.01960784313727,-221.49019607843138,44.5,7.68,-33.59
2774.65,-243.0,177.49019607843138,-67.49019607843137,3.79,5.65,-33.91
2774.7,-218.50980392156862,-225.0,175.01960784313727,-3.51,-11.17,-41.47
2774.75,187.98039215686273,308.01960784313724,113.01960784313725,0.85,-9.91,-44.34
2774.8,-320.01960784313724,-225.0,282.01960784313724,-2.81,1.07,-40.87
2774.85,42.0,226.49019607843138,-6.490196078431373,-16.64,10.73,-37.3
2774.9,129.50980392156862,-236.01960784313727,270.5098039215686,-20.59,8.66,-43.71
2774.95,90.0,150.0,86.50980392156863,-15.52,8.84,-47.42
2775.0,76.98039215686275,-317.4901960784314,190.01960784313727,-18.21,9.4,-44.02
2775.05,76.98039215686275,-192.0,-313.4901960784314,-16.43,19.55,-40.49
2775.1,-202.50980392156862,258.4901960784314,-206.49019607843138,-14.61,19.79,-41.29
2775.15,-211.0,-24.019607843137255,-203.0,-20.8,19.34,-31.81
2775.2,35.490196078431374,117.0,-190.49019607843138,-22.27,22.14,-31.25
2775.25,-146.01960784313727,-45.0,-175.49019607843138,-28.89,24.62,-25.68
2775.3,-139.50980392156862,264.0,70.50980392156863,-34.52,26.02,-23.86
2775.35,-170.50980392156862,101.0,193.50980392156862,-46.88,32.25,-3.21
2775.4,4.490196078431373,117.0,239.50980392156862,-59.44,20.21,11.97
2775.45,99.49019607843137,166.0,-83.49019607843137,-29.83,-0.67,10.36
2775.5,131.49019607843138,150.0,-6.490196078431373,-18.32,12.27,-0.34
2775.55,-11.509803921568627,166.0,-67.49019607843137,-22.48,38.45,1.22
2775.6,-11.509803921568627,183.0,-83.49019607843137,-24.86,39.36,-1.39
2775.65,51.490196078431374,150.0,-206.49019607843138,-3.62,35.96,-10.07
2775.7,67.49019607843137,313.0,-206.49019607843138,10.51,39.18,-8.92
2775.75,99.49019607843137,-263.5098039215686,313.01960784313724,-2.53,39.78,-15.99
2775.8,19.49019607843137,248.0,-67.49019607843137,-5.47,30.89,-16.48
2775.85,281.0,-296.5098039215686,-67.49019607843137,-10.93,30.64,-14.83
2775.9,-123.50980392156863,232.0,116.50980392156863,-6.77,28.75,-10.49
2775.95,-43.509803921568626,281.0,70.50980392156863,-18.35,11.85,-11.37
2776.0,51.490196078431374,297.0,70.50980392156863,-27.94,-5.89,-4.86
2776.05,-75.50980392156863,-263.5098039215686,-36.490196078431374,-22.66,-16.53,-1.15
2776.1,226.49019607843138,281.0,-83.49019607843137,2.81,-38.54,6.89
2776.15,83.49019607843137,215.0,-6.490196078431373,-1.87,-18.03,7.52
2776.2,35.490196078431374,133.0,270.5098039215686,16.46,-3.19,8.75
2776.25,-91.50980392156863,19.0,147.50980392156862,-34.94,-19.01,2.27
2776.3,-298.5098039215686,19.0,-156.0,-27.56,-18.52,-1.88
2776.35,-234.50980392156862,19.0,224.50980392156862,-40.23,22.73,3.95
2776.4,-75.50980392156863,166.0,39.509803921568626,-59.41,31.27,7.42
2776.45,140.98039215686273,-247.50980392156862,21.019607843137255,67.04,11.88,11.37
2776.5,76.98039215686275,297.0,-75.47058823529412,-2.25,-9.0,17.01
2776.55,12.980392156862745,79.49019607843137,36.01960784313726,-27.8,-20.97,18.9
2776.6,251.98039215686273,-133.50980392156862,-252.49019607843138,-9.88,-29.02,11.62
2776.65,-193.01960784313727,313.0,-21.49019607843137,32.42,-23.53,-9.27
2776.7,210.49019607843138,-45.0,-264.0,58.01,11.92,-4.51
2776.75,-91.50980392156863,35.0,-233.0,-18.25,10.69,-2.55
2776.8,-170.50980392156862,117.0,58.0,26.4,0.68,0.42
2776.85,226.49019607843138,117.0,-218.0,55.24,4.15,-8.18
2776.9,210.49019607843138,-198.50980392156862,-279.0,32.42,14.96,-11.61
2776.95,-186.50980392156862,19.0,-172.0,-11.91,13.81,-10.84
2777.0,-234.50980392156862,-29.0,258.0,-17.69,10.9,-3.18
2777.05,-91.50980392156863,-160.0,166.0,16.46,14.26,0.49
2777.1,-139.50980392156862,84.0,-110.0,-3.58,16.99,10.25
2777.15,51.490196078431374,-182.50980392156862,-141.0,-4.77,-13.59,9.06
2777.2,242.49019607843138,30.49019607843137,-264.0,-3.79,-20.03,5.04
2777.25,274.4901960784314,30.49019607843137,-110.0,14.22,-19.22,10.43
2777.3,67.49019607843137,-100.50980392156863,-172.0,6.07,-7.29,8.22
2777.35,115.49019607843137,-182.50980392156862,-126.0,-1.1,24.48,-0.1
2777.4,83.49019607843137,-149.50980392156862,-18.0,7.99,63.72,19.77
2777.45,210.49019607843138,-198.50980392156862,-203.0,-21.96,85.66,9.59
2777.5,258.4901960784314,-149.50980392156862,27.0,11.46,98.33,0.7
2777.55,-289.01960784313724,-247.50980392156862,-310.0,15.24,119.72,-5.73
2777.6,-193.01960784313727,232.0,-79.0,10.62,105.86,44.13
2777.65,306.4901960784314,264.0,-33.0,4.63,115.97,69.47
2777.7,258.4901960784314,264.0,-49.0,-2.04,114.64,31.74
2777.75,-305.01960784313724,183.0,-18.0,-9.18,80.73,-47.0
2777.8,258.4901960784314,150.0,-18.0,26.44,18.85,-46.19
2777.85,-257.01960784313724,313.0,-156.0,2.36,-12.5,-75.17
2777.9,-257.01960784313724,-149.50980392156862,-249.0,-8.06,-11.77,-80.98
2777.95,115.49019607843137,-67.50980392156863,-218.0,1.06,7.86,-63.73
2778.0,163.49019607843138,-182.50980392156862,-218.0,9.81,2.5,-36.6
2778.05,51.490196078431374,264.0,-218.0,3.13,-3.86,2.06
2778.1,163.49019607843138,-214.50980392156862,-49.0,8.83,19.37,32.58
2778.15,242.49019607843138,-263.5098039215686,-49.0,4.35,19.93,22.57
2778.2,-320.01960784313724,133.0,-79.0,-4.42,9.08,-23.79
2778.25,226.49019607843138,-296.5098039215686,43.0,4.95,-3.75,-14.48
2778.3,-320.01960784313724,52.0,-156.0,8.2,3.76,13.51
2778.35,83.49019607843137,117.0,-49.0,15.17,1.03,5.77
2778.4,194.49019607843138,281.0,-126.0,-5.16,-5.05,-14.69
2778.45,-289.01960784313724,297.0,-64.0,9.57,15.14,23.66
2778.5,-50.01960784313726,-296.5098039215686,-141.0,-8.87,-2.07,8.47
2778.55,108.98039215686275,281.0,-156.0,7.4,-16.14,-2.55
2778.6,-209.01960784313727,-67.50980392156863,-95.0,-29.9,-13.48,2.76
2778.65,-320.01960784313724,-165.50980392156862,-33.0,-6.1,-5.19,7.45
2778.7,83.49019607843137,-231.50980392156862,-3.0,-23.43,2.82,17.22
2778.75,67.49019607843137,101.0,-110.0,-67.95,8.1,20.75
2778.8,4.490196078431373,199.0,119.0,-24.86,-14.85,15.92
2778.85,163.49019607843138,3.0,-310.0,5.3,0.51,11.48
2778.9,226.49019607843138,150.0,-172.0,-11.56,12.23,4.2
2778.95,83.49019607843137,-116.50980392156863,43.0,0.47,4.6,-2.09
2779.0,290.4901960784314,281.0,-79.0,-14.64,5.72,0.38
2779.05,-241.01960784313727,264.0,-233.0,42.01,-14.15,11.51
2779.1,-225.01960784313727,101.0,86.50980392156863,3.83,19.69,5.21
2779.15,242.49019607843138,-67.50980392156863,150.0,3.34,6.42,-0.69
2779.2,178.49019607843138,-51.509803921568626,-233.0,-7.85,3.17,-13.85
2779.25,115.49019607843137,-165.50980392156862,181.0,29.66,-4.52,-0.1
2779.3,210.49019607843138,248.0,-187.0,19.54,-2.25,4.3
2779.35,83.49019607843137,313.0,73.0,15.45,-2.46,13.12
2779.4,35.490196078431374,313.0,27.0,24.06,-9.74,13.89
2779.45,67.49019607843137,-296.5098039215686,-64.0,17.69,-8.16,6.58
2779.5,115.49019607843137,-182.50980392156862,-33.0,14.61,-2.98,7.8
2779.55,258.4901960784314,232.0,-141.0,-0.08,7.93,-1.08
2779.6,258.4901960784314,52.0,-218.0,10.86,7.47,-26.17
2779.65,131.49019607843138,-247.50980392156862,27.0,-14.89,3.8,-42.55
2779.7,147.49019607843138,-165.50980392156862,12.0,-17.3,3.97,-37.37
2779.75,147.49019607843138,-165.50980392156862,27.0,3.72,-9.18,-15.53
2779.8,-241.01960784313727,117.0,-310.0,13.42,-8.44,17.32
2779.85,194.49019607843138,297.0,-3.0,4.7,-0.5,-18.3
2779.9,210.49019607843138,-165.50980392156862,-33.0,-1.45,-12.47,15.5
2779.95,178.49019607843138,-84.50980392156863,89.0,4.25,-16.42,-11.09
2780.0,290.4901960784314,-280.5098039215686,-79.0,-14.64,5.72,-0.69
2780.05,-257.01960784313724,232.0,-233.0,42.01,-14.15,-7.31
2780.1,226.49019607843138,-214.50980392156862,86.50980392156863,3.83,19.69,-2.97
2780.15,194.49019607843138,-165.50980392156862,150.0,3.34,6.42,4.23
2780.2,-257.01960784313724,-165.50980392156862,-233.0,-7.85,3.17,1.78
2780.25,-241.01960784313727,-67.50980392156863,181.0,29.66,-4.52,5.77
2780.3,-130.01960784313727,-100.50980392156863,-187.0,19.54,-2.25,-2.65
2780.35,-161.01960784313727,-149.50980392156862,73.0,15.45,-2.46,6.23
2780.4,-50.01960784313726,-51.509803921568626,27.0,24.06,-9.74,13.82
2780.45,-241.01960784313727,79.49019607843137,-64.0,17.69,-8.16,-12.38
2780.5,-3.019607843137255,-231.50980392156862,-33.0,14.61,-2.98,-4.54
2780.55,-161.01960784313727,-165.50980392156862,-141.0,-0.08,7.93,11.34
2780.6,-225.01960784313727,-133.50980392156862,-218.0,10.86,7.47,8.82
2780.65,-241.01960784313727,-116.50980392156863,27.0,-14.89,3.8,-13.99
2780.7,-50.01960784313726,-182.50980392156862,12.0,-17.3,3.97,-6.82
2780.75,306.4901960784314,-214.50980392156862,27.0,3.72,-9.18,1.99
2780.8,258.4901960784314,-312.5098039215686,-310.0,13.42,-8.44,-1.53
2780.85,-139.50980392156862,297.0,-3.0,4.7,-0.5,-3.21
2780.9,-298.5098039215686,117.0,-33.0,-1.45,-12.47,1.99
2780.95,138.0,150.0,89.0,4.25,-16.42,5.11
2781.0,249.0,150.0,-49.0,15.1,-22.93,6.37
2781.05,-282.5098039215686,313.0,-218.0,33.96,-25.31,-7.45
2781.1,-59.509803921568626,-231.50980392156862,-95.0,22.2,-12.92,-0.9
2781.15,35.490196078431374,-67.50980392156863,-79.0,-0.57,-7.25,-8.85
2781.2,290.4901960784314,-18.50980392156863,-203.0,4.21,-3.47,-5.14
2781.25,-225.01960784313727,-296.5098039215686,-310.0,11.77,-2.77,6.68
2781.3,163.49019607843138,248.0,193.50980392156862,9.6,9.26,0.91
2781.35,131.49019607843138,297.0,-141.0,2.32,-5.78,1.29
2781.4,178.49019607843138,-263.5098039215686,-218.0,-8.62,11.71,2.38
2781.45,115.49019607843137,-182.50980392156862,-279.0,8.03,3.27,-8.6
2781.5,147.49019607843138,166.0,209.50980392156862,5.16,13.32,-2.48
2781.55,51.490196078431374,297.0,-203.0,4.88,12.09,6.82
2781.6,-11.509803921568627,-296.5098039215686,-295.0,-34.73,14.86,0.91
2781.65,35.490196078431374,-280.5098039215686,-110.0,-10.51,15.07,5.25
2781.7,147.49019607843138,-263.5098039215686,-126.0,-12.75,16.82,5.63
2781.75,115.49019607843137,-149.50980392156862,-95.0,1.1,0.19,4.62
2781.8,194.49019607843138,297.0,-33.0,-25.77,-4.8,-6.15
2781.85,83.49019607843137,-280.5098039215686,119.0,13.35,-15.93,-16.93
2781.9,163.49019607843138,-263.5098039215686,-3.0,21.71,-16.25,-2.41
2781.95,194.49019607843138,-247.50980392156862,58.0,23.39,-22.62,-8.01
2782.0,194.49019607843138,-149.50980392156862,-110.0,0.57,-10.37,-9.44
2782.05,-305.01960784313724,-214.50980392156862,-233.0,22.13,-3.68,35.8
2782.1,-320.01960784313724,166.0,-233.0,30.88,-28.71,21.94
2782.15,306.4901960784314,-247.50980392156862,-80.0,-9.25,-15.13,-8.11
2782.2,-225.01960784313727,-18.50980392156863,-80.0,-1.24,-10.4,1.22
2782.25,-34.01960784313726,-2.5098039215686274,-33.0,-5.33,-1.76,12.77
2782.3,76.98039215686275,-35.509803921568626,-187.0,8.66,0.47,1.54
2782.35,28.980392156862745,160.49019607843138,-126.0,2.01,4.29,6.44
2782.4,12.980392156862745,-182.50980392156862,-295.0,-10.16,11.78,-6.57
2782.45,-177.01960784313727,-116.50980392156863,-203.0,-1.38,9.43,-5.45
2782.5,-209.01960784313727,-116.50980392156863,-156.0,-1.94,4.32,-3.11
2782.55,306.4901960784314,-182.50980392156862,-203.0,13.17,1.91,-5.98
2782.6,-241.01960784313727,-165.50980392156862,-218.0,-8.76,16.99,0.66
2782.65,-161.01960784313727,215.0,270.5098039215686,-5.37,10.38,-0.52
2782.7,178.49019607843138,-312.5098039215686,-156.0,1.41,7.65,-6.43
2782.75,67.49019607843137,-280.5098039215686,-64.0,-5.86,13.28,-5.56
2782.8,-11.509803921568627,313.0,-218.0,-1.31,17.34,-2.69
2782.85,99.49019607843137,117.0,316.5098039215686,14.57,4.67,7.94
2782.9,-266.5098039215686,166.0,-126.0,-9.64,4.67,3.04
2782.95,281.0,248.0,-33.0,0.75,1.52,-3.21
2783.0,-202.50980392156862,150.0,-172.0,8.87,-3.68,-5.91
2783.05,-186.50980392156862,166.0,-218.0,16.64,4.46,-1.99
2783.1,19.49019607843137,-280.5098039215686,-156.0,10.65,15.35,2.8
2783.15,306.4901960784314,-100.50980392156863,-33.0,14.64,3.69,0.28
2783.2,-273.01960784313724,-84.50980392156863,-279.0,9.74,2.01,13.47
2783.25,-320.01960784313724,-231.50980392156862,-33.0,-9.71,4.5,6.82
2783.3,99.49019607843137,248.0,-80.0,-7.33,-2.39,-12.77
2783.35,-43.509803921568626,-312.5098039215686,-49.0,-13.21,1.14,7.49
2783.4,35.490196078431374,-231.50980392156862,-95.0,6.24,-5.15,9.66
2783.45,19.49019607843137,-214.50980392156862,-79.0,-3.41,-15.2,-8.29
2783.5,290.4901960784314,313.0,-172.0,-1.03,-15.27,6.54
2783.55,19.49019607843137,297.0,-18.0,-5.05,-9.04,2.1
2783.6,19.49019607843137,-263.5098039215686,-49.0,8.1,-15.09,1.29
2783.65,147.49019607843138,-312.5098039215686,-187.0,7.33,-13.52,0.56
2783.7,163.49019607843138,-198.50980392156862,-33.0,8.13,-10.65,7.7
2783.75,258.4901960784314,-247.50980392156862,-79.0,-11.11,-8.06,2.1
2783.8,242.49019607843138,199.0,-310.0,-19.89,2.4,-18.54
2783.85,226.49019607843138,-247.50980392156862,-156.0,-29.24,9.22,-25.51
2783.9,274.4901960784314,-198.50980392156862,-156.0,-44.04,19.51,-17.35
2783.95,-320.01960784313724,-247.50980392156862,-156.0,-35.26,17.1,-9.34
2784.0,-305.01960784313724,-67.50980392156863,-156.0,8.2,14.26,9.9
2784.05,-18.019607843137255,-214.50980392156862,224.50980392156862,33.89,11.67,25.55
2784.1,-161.01960784313727,313.0,-295.0,6.24,-1.44,24.53
2784.15,-161.01960784313727,-214.50980392156862,286.5098039215686,12.96,-15.13,12.21
2784.2,-50.01960784313726,79.49019607843137,-249.0,22.83,-22.27,-1.53
2784.25,-82.01960784313725,13.490196078431373,301.5098039215686,30.64,-14.36,0.94
2784.3,108.98039215686275,-296.5098039215686,70.50980392156863,20.14,1.8,5.95
2784.35,108.98039215686275,313.0,9.509803921568627,9.11,3.73,8.68
2784.4,-193.01960784313727,-280.5098039215686,209.50980392156862,-9.18,3.69,-7.97
2784.45,-289.01960784313724,-231.50980392156862,-218.0,5.72,0.12,-14.1
2784.5,274.4901960784314,-165.50980392156862,-249.0,-0.89,15.31,-0.03
2784.55,258.4901960784314,-198.50980392156862,-172.0,8.9,6.07,15.15
2784.6,-193.01960784313727,150.0,147.50980392156862,17.2,-7.43,9.8
2784.65,210.49019607843138,281.0,-218.0,-5.12,-1.62,2.62
2784.7,51.490196078431374,264.0,-187.0,-8.97,-5.85,-7.59
2784.75,-107.50980392156863,232.0,-141.0,10.37,-11.66,-1.88
2784.8,-313.5098039215686,166.0,-49.0,15.66,-7.78,7.84
2784.85,186.0,232.0,119.0,10.79,-8.79,-0.52
2784.9,-266.5098039215686,117.0,-79.0,5.44,-17.65,2.55
2784.95,-75.50980392156863,117.0,-110.0,-4.63,-11.0,-0.03
2785.0,226.49019607843138,-165.50980392156862,-79.0,-6.77,-7.6,-2.79
2785.05,290.4901960784314,-165.50980392156862,-141.0,-6.59,-3.3,0.7
2785.1,242.49019607843138,-214.50980392156862,-126.0,1.59,-5.12,16.87
2785.15,178.49019607843138,-296.5098039215686,-3.0,18.88,6.95,-5.45
2785.2,115.49019607843137,183.0,-110.0,19.54,-0.71,3.78
2785.25,-75.50980392156863,297.0,43.0,0.47,4.01,10.43
2785.3,-186.50980392156862,-247.50980392156862,-49.0,27.56,2.29,-0.94
2785.35,51.490196078431374,-263.5098039215686,-126.0,13.14,8.66,-8.29
2785.4,242.49019607843138,-280.5098039215686,-233.0,9.6,13.56,-0.17
2785.45,-225.01960784313727,215.0,-264.0,11.67,13.56,0.59
2785.5,194.49019607843138,-296.5098039215686,-64.0,-3.27,13.98,-3.56
2785.55,178.49019607843138,-198.50980392156862,-187.0,1.03,19.27,-4.05
2785.6,131.49019607843138,-280.5098039215686,-95.0,4.63,11.64,-7.06
2785.65,-289.01960784313724,52.0,101.50980392156863,6.03,3.59,-13.85
2785.7,-320.01960784313724,-280.5098039215686,-218.0,-0.43,3.83,-2.09
2785.75,306.4901960784314,-214.50980392156862,-95.0,-16.25,5.65,-10.32
2785.8,290.4901960784314,-263.5098039215686,-233.0,-7.85,9.26,-15.39
2785.85,258.4901960784314,-67.50980392156863,-3.0,-5.65,8.8,-8.85
2785.9,44.98039215686274,183.0,55.509803921568626,1.97,7.09,17.95
2785.95,-98.01960784313725,-100.50980392156863,286.5098039215686,10.55,5.69,8.68
2786.0,-66.01960784313725,30.49019607843137,-64.0,-12.86,15.38,3.08
2786.05,12.980392156862745,-35.509803921568626,-172.0,-9.74,-1.3,-5.66
2786.1,-130.01960784313727,46.490196078431374,-64.0,3.58,-3.54,5.53
2786.15,187.98039215686273,-296.5098039215686,163.50980392156862,2.22,-16.07,2.03
2786.2,-193.01960784313727,-100.50980392156863,-156.0,0.61,-8.86,0.52
2786.25,-257.01960784313724,-165.50980392156862,-249.0,-18.67,-2.21,13.05
2786.3,-209.01960784313727,-231.50980392156862,-249.0,-10.62,-13.69,17.39
2786.35,290.4901960784314,-84.50980392156863,-95.0,-8.9,-9.74,9.94
2786.4,-209.01960784313727,101.0,55.509803921568626,2.08,-12.85,-5.77
2786.45,226.49019607843138,313.0,-233.0,-11.11,3.94,10.11
2786.5,178.49019607843138,297.0,-233.0,-9.81,-9.35,-0.9
2786.55,242.49019607843138,166.0,-295.0,-0.61,-5.71,-11.37
2786.6,-154.50980392156862,183.0,-172.0,-4.81,2.15,3.67
2786.65,-282.5098039215686,166.0,-95.0,-14.71,1.14,-11.65
2786.7,297.0,84.0,-18.0,-24.69,8.03,-9.48
2786.75,297.0,-13.0,-18.0,20.24,5.51,6.68
2786.8,-234.50980392156862,281.0,-110.0,0.26,7.79,-5.8
2786.85,226.49019607843138,-165.50980392156862,-110.0,-3.97,6.74,-7.24
2786.9,194.49019607843138,-35.509803921568626,73.0,10.79,-1.02,7.28
2786.95,290.4901960784314,-214.50980392156862,-156.0,12.79,-3.75,17.04
2787.0,242.49019607843138,281.0,-172.0,8.48,2.36,-4.44
2787.05,51.490196078431374,232.0,-80.0,16.11,2.22,2.8
2787.1,4.490196078431373,297.0,-187.0,-8.1,16.71,11.3
2787.15,-43.509803921568626,-263.5098039215686,43.0,-0.12,-7.18,4.62
2787.2,35.490196078431374,313.0,-126.0,-0.33,-2.21,9.13
2787.25,210.49019607843138,166.0,-310.0,12.23,0.82,7.03
2787.3,-11.509803921568627,199.0,-172.0,17.16,-8.65,0.59
2787.35,-43.509803921568626,281.0,-172.0,14.08,-21.85,-1.64
2787.4,67.49019607843137,297.0,-218.0,-8.31,-1.9,5.14
2787.45,242.49019607843138,-182.50980392156862,-18.0,8.69,-6.2,2.45
2787.5,258.4901960784314,199.0,193.50980392156862,12.16,2.01,-11.44
2787.55,210.49019607843138,297.0,-249.0,1.45,0.44,-14.69
2787.6,210.49019607843138,-280.5098039215686,-172.0,-8.31,-1.09,-17.49
2787.65,210.49019607843138,-182.50980392156862,-110.0,-3.27,-0.25,-27.75
2787.7,-114.01960784313725,183.0,163.50980392156862,-10.2,10.45,4.83
2787.75,290.4901960784314,-214.50980392156862,-141.0,-3.13,6.46,20.58
2787.8,-305.01960784313724,-133.50980392156862,-203.0,-11.25,3.17,12.49
2787.85,-273.01960784313724,-198.50980392156862,-187.0,-8.41,-0.6,-1.6
2787.9,-241.01960784313727,-84.50980392156863,-172.0,-10.86,-2.35,0.45
2787.95,-114.01960784313725,-18.50980392156863,-249.0,-12.26,8.03,3.64
2788.0,12.980392156862745,-133.50980392156862,-172.0,8.48,2.36,14.66
2788.05,44.98039215686274,13.490196078431373,-80.0,16.11,2.22,8.19
2788.1,-82.01960784313725,-84.50980392156863,-187.0,-8.1,16.71,3.95
2788.15,-193.01960784313727,-116.50980392156863,43.0,-0.12,-7.18,-1.88
2788.2,-161.01960784313727,-35.509803921568626,-126.0,-0.33,-2.21,-4.05
2788.25,-177.01960784313727,-263.5098039215686,-310.0,12.23,0.82,2.83
2788.3,-273.01960784313724,-247.50980392156862,-172.0,17.16,-8.65,18.23
2788.35,-305.01960784313724,-263.5098039215686,-172.0,14.08,-21.85,6.75
2788.4,290.4901960784314,-165.50980392156862,-218.0,-8.31,-1.9,0.24
2788.45,-209.01960784313727,264.0,-18.0,8.69,-6.2,-1.18
2788.5,178.49019607843138,-263.5098039215686,193.50980392156862,12.16,2.01,-7.66
2788.55,115.49019607843137,-247.50980392156862,-249.0,1.45,0.44,-5.59
2788.6,19.49019607843137,84.0,-172.0,-8.31,-1.09,-2.3
2788.65,186.0,150.0,-110.0,-3.27,-0.25,-11.37
2788.7,58.0,35.0,163.50980392156862,-10.2,10.45,-15.74
2788.75,-202.50980392156862,-78.0,-141.0,-3.13,6.46,-3.7
2788.8,-202.50980392156862,-94.0,-203.0,-11.25,3.17,-0.41
2788.85,-11.509803921568627,313.0,-187.0,-8.41,-0.6,4.41
2788.9,210.49019607843138,-214.50980392156862,-172.0,-10.86,-2.35,2.24
2788.95,194.49019607843138,-280.5098039215686,-249.0,-12.26,8.03,0.52
2789.0,210.49019607843138,-231.50980392156862,270.5098039215686,1.17,-4.98,3.39
2789.05,163.49019607843138,-280.5098039215686,-279.0,6.17,-6.34,12.6
2789.1,290.4901960784314,248.0,-249.0,14.57,-4.56,20.51
2789.15,306.4901960784314,297.0,301.5098039215686,-5.33,-5.08,-0.45
2789.2,226.49019607843138,281.0,-172.0,-9.85,3.8,-7.31
2789.25,242.49019607843138,313.0,224.50980392156862,-2.78,8.14,2.9
2789.3,290.4901960784314,-312.5098039215686,316.5098039215686,-1.8,4.22,4.83
2789.35,306.4901960784314,-214.50980392156862,-249.0,-25.49,5.55,0.98
2789.4,-289.01960784313724,-263.5098039215686,-264.0,-7.33,1.49,5.25
2789.45,-130.01960784313727,-214.50980392156862,224.50980392156862,6.73,8.03,-2.79
2789.5,-34.01960784313726,-214.50980392156862,-141.0,-34.98,4.71,-9.55
2789.55,290.4901960784314,281.0,-172.0,-12.96,-9.46,-1.46
2789.6,115.49019607843137,-312.5098039215686,-233.0,5.72,-4.49,11.16
2789.65,178.49019607843138,264.0,-3.0,-12.82,3.8,8.05
2789.7,163.49019607843138,-165.50980392156862,-33.0,-32.67,19.27,34.26
2789.75,242.49019607843138,-312.5098039215686,-18.0,-40.65,31.9,14.14
2789.8,194.49019607843138,-296.5098039215686,-64.0,-21.22,9.43,26.0
2789.85,-154.50980392156862,-312.5098039215686,27.0,-0.78,-9.95,18.97
2789.9,-139.50980392156862,-280.5098039215686,12.0,17.44,-23.63,13.58
2789.95,-27.50980392156863,264.0,-64.0,11.35,-13.8,-8.6
2790.0,4.490196078431373,-263.5098039215686,-79.0,-1.03,-26.12,-16.27
2790.05,-27.50980392156863,-263.5098039215686,-126.0,0.92,-23.7,-11.86
2790.1,-43.509803921568626,-231.50980392156862,-49.0,18.07,-33.15,-6.64
2790.15,-75.50980392156863,-280.5098039215686,-156.0,26.65,-37.25,-13.5
2790.2,-59.509803921568626,264.0,-279.0,16.53,-35.25,-28.48
2790.25,115.49019607843137,313.0,-141.0,5.16,-35.01,-34.68
2790.3,290.4901960784314,313.0,-279.0,3.97,-29.48,-28.59
2790.35,-59.509803921568626,-182.50980392156862,-249.0,14.85,-35.81,-14.59
2790.4,-27.50980392156863,150.0,-264.0,-7.15,-30.21,1.61
2790.45,163.49019607843138,-280.5098039215686,-126.0,3.76,-34.76,19.11
2790.5,67.49019607843137,-296.5098039215686,-218.0,58.81,-65.14,29.54
2790.55,67.49019607843137,264.0,239.50980392156862,39.07,-79.0,18.72
2790.6,178.49019607843138,166.0,-310.0,41.91,-53.73,-2.27
2790.65,99.49019607843137,183.0,-144.49019607843138,2.11,-22.55,-12.14
2790.7,51.490196078431374,-247.50980392156862,147.50980392156862,-48.0,-4.66,-6.05
2790.75,210.49019607843138,-35.509803921568626,-21.49019607843137,-5.54,1.59,5.67
2790.8,-27.50980392156863,-247.50980392156862,-160.49019607843138,0.08,-11.56,16.59
2790.85,-91.50980392156863,-84.50980392156863,55.509803921568626,-16.53,-13.87,9.41
2790.9,51.490196078431374,-133.50980392156862,132.50980392156862,-18.6,-6.59,8.92
2790.95,99.49019607843137,215.0,-21.49019607843137,-34.38,-0.32,10.08
2791.0,67.49019607843137,281.0,-113.49019607843137,-31.06,-0.99,4.65
2791.05,35.490196078431374,-165.50980392156862,24.50980392156863,-22.73,-5.92,6.4
2791.1,-27.50980392156863,232.0,178.50980392156862,3.13,-4.7,1.75
2791.15,-11.509803921568627,-263.5098039215686,282.01960784313724,-3.34,-7.88,-4.51
2791.2,-209.01960784313727,62.490196078431374,132.50980392156862,-65.36,6.56,0.42
2791.25,99.49019607843137,-214.50980392156862,70.50980392156863,-48.98,16.75,11.02
2791.3,178.49019607843138,-51.509803921568626,239.50980392156862,-24.76,-0.32,13.33
2791.35,163.49019607843138,-165.50980392156862,193.50980392156862,-3.02,-12.05,-0.34
2791.4,67.49019607843137,-280.5098039215686,178.50980392156862,-12.02,-14.57,2.45
2791.45,67.49019607843137,-280.5098039215686,224.50980392156862,-12.82,-5.57,7.56
2791.5,4.490196078431373,-296.5098039215686,86.50980392156863,-25.42,-15.44,9.59
2791.55,67.49019607843137,297.0,116.50980392156863,2.5,-14.64,9.52
2791.6,35.490196078431374,-247.50980392156862,55.509803921568626,-17.41,-7.53,8.96
2791.65,4.490196078431373,-280.5098039215686,9.509803921568627,-13.17,-2.7,3.71
2791.7,35.490196078431374,-312.5098039215686,86.50980392156863,-1.69,-13.83,16.34
2791.75,35.490196078431374,-165.50980392156862,55.509803921568626,-7.61,-7.85,17.08
2791.8,4.490196078431373,-214.50980392156862,-52.490196078431374,-7.85,-14.81,18.13
2791.85,67.49019607843137,-182.50980392156862,39.509803921568626,-29.8,-17.61,23.87
2791.9,19.49019607843137,248.0,193.50980392156862,-32.49,-13.83,16.73
2791.95,-27.50980392156863,-312.5098039215686,255.50980392156862,3.69,-7.08,1.85
2792.0,67.49019607843137,281.0,-113.49019607843137,-4.74,-5.71,6.23
2792.05,35.490196078431374,-165.50980392156862,24.50980392156863,-13.24,39.15,-6.4
2792.1,-27.50980392156863,232.0,178.50980392156862,10.93,18.25,-10.67
2792.15,-11.509803921568627,-263.5098039215686,282.01960784313724,13.94,-1.16,-2.27
2792.2,-209.01960784313727,62.490196078431374,132.50980392156862,15.17,1.73,-5.38
2792.25,99.49019607843137,-214.50980392156862,70.50980392156863,13.0,-8.34,-2.9
2792.3,178.49019607843138,-51.509803921568626,239.50980392156862,20.17,-8.13,-3.39
2792.35,163.49019607843138,-165.50980392156862,193.50980392156862,14.01,-8.69,-0.52
2792.4,67.49019607843137,-280.5098039215686,178.50980392156862,10.23,-11.0,0.77
2792.45,67.49019607843137,-280.5098039215686,224.50980392156862,13.45,-10.3,1.82
2792.5,4.490196078431373,-296.5098039215686,86.50980392156863,3.16,-13.62,0.45
2792.55,67.49019607843137,297.0,116.50980392156863,7.61,-11.59,0.91
2792.6,35.490196078431374,-247.50980392156862,55.509803921568626,-0.4,-16.56,-0.45
2792.65,4.490196078431373,-280.5098039215686,9.509803921568627,8.76,-7.95,-1.32
2792.7,35.490196078431374,-312.5098039215686,86.50980392156863,-9.46,2.05,-1.04
2792.75,35.490196078431374,-165.50980392156862,55.509803921568626,6.59,-3.58,-4.05
2792.8,4.490196078431373,-214.50980392156862,-52.490196078431374,-1.73,-9.98,-0.2
2792.85,67.49019607843137,-182.50980392156862,39.509803921568626,-1.76,-8.86,-7.73
2792.9,19.49019607843137,248.0,193.50980392156862,4.46,-18.94,-9.02
2792.95,-27.50980392156863,-312.5098039215686,255.50980392156862,-22.62,-8.9,-1.99
2793.0,265.0,-198.50980392156862,55.509803921568626,4.6,-8.23,-10.49
2793.05,249.0,264.0,86.50980392156863,-74.6,35.68,42.0
2793.1,265.0,313.0,9.509803921568627,84.75,-31.3,-17.0
2793.15,217.0,-296.5098039215686,255.50980392156862,104.87,-34.97,-13.78
2793.2,42.0,-143.0,86.50980392156863,45.62,-24.79,-14.1
2793.25,177.50980392156862,68.0,301.5098039215686,-0.92,-12.15,-6.36
2793.3,-179.0,-263.5098039215686,147.50980392156862,27.49,-10.54,-4.86
2793.35,233.0,-214.50980392156862,-283.4901960784314,31.23,-41.1,0.66
2793.4,-91.50980392156863,-214.50980392156862,-206.49019607843138,62.45,-53.87,-10.0
2793.45,-43.509803921568626,313.0,-175.49019607843138,46.56,-62.97,9.97
2793.5,233.0,-312.5098039215686,-67.49019607843137,68.96,-48.55,14.17
2793.55,-163.0,84.0,-221.49019607843138,21.89,-43.86,39.16
2793.6,272.5098039215686,264.0,-160.49019607843138,41.73,-38.44,43.64
2793.65,161.50980392156862,101.0,313.01960784313724,29.2,-35.85,58.41
2793.7,224.50980392156862,84.0,-313.4901960784314,30.46,-28.78,67.37
2793.75,-163.0,3.0,282.01960784313724,35.68,-21.25,70.84
2793.8,-195.0,-45.0,-283.4901960784314,9.78,-15.16,78.92
2793.85,-163.0,35.0,-236.49019607843138,14.61,-6.45,72.94
2793.9,-4.0,-62.0,267.01960784313724,11.39,-11.91,49.56
2793.95,42.0,-78.0,267.01960784313724,-0.54,-23.77,35.1
2794.0,265.0,19.0,129.01960784313727,10.58,-24.33,21.42
2794.05,249.0,-143.0,282.01960784313724,-20.31,-13.9,16.31
2794.1,265.0,19.0,267.01960784313724,42.22,-9.07,3.71
2794.15,217.0,-143.0,252.01960784313727,-13.14,12.93,12.67
2794.2,42.0,-29.0,129.01960784313727,76.87,77.02,54.46
2794.25,177.50980392156862,-198.50980392156862,-236.49019607843138,9.22,94.52,100.97
2794.3,-179.0,133.0,-83.49019607843137,-156.15,31.55,164.04
2794.35,233.0,52.0,301.5098039215686,-117.26,-69.76,203.14
2794.4,-91.50980392156863,-198.50980392156862,239.50980392156862,-60.53,-108.09,223.4
2794.45,-43.509803921568626,19.0,-37.490196078431374,-30.95,-70.95,217.91
2794.5,233.0,-160.0,-9.980392156862745,-21.08,-11.35,195.86
2794.55,-163.0,-143.0,124.52941176470588,39.95,15.24,160.65
2794.6,272.5098039215686,-111.0,-209.98039215686273,8.73,26.83,126.35
2794.65,161.50980392156862,319.5098039215686,-70.98039215686275,11.42,10.24,71.01
2794.7,224.50980392156862,303.5098039215686,313.01960784313724,-0.08,-2.63,55.61
2794.75,-163.0,237.50980392156862,-236.49019607843138,3.44,-7.11,75.42
2794.8,-195.0,-94.0,282.01960784313724,-68.23,4.6,73.64
2794.85,-163.0,237.50980392156862,-313.4901960784314,-42.61,13.07,46.06
2794.9,-4.0,-176.0,67.01960784313725,55.35,-8.79,39.65
2794.95,42.0,303.5098039215686,236.01960784313727,45.02,-1.13,45.74
2795.0,-52.0,303.5098039215686,-252.49019607843138,-1.87,10.62,64.92
2795.05,-68.0,319.5098039215686,-298.4901960784314,-2.67,9.64,96.6
2795.1,-68.0,-258.0,-313.4901960784314,16.64,11.32,77.45
2795.15,-84.0,-225.0,-298.4901960784314,14.36,6.11,116.44
2795.2,-4.0,-258.0,-298.4901960784314,23.99,21.16,33.18
2795.25,-147.0,303.5098039215686,-298.4901960784314,-15.41,25.22,33.81
2795.3,-243.0,303.5098039215686,-221.49019607843138,-3.2,14.37,54.42
2795.35,-36.0,-241.0,-252.49019607843138,-26.75,12.23,52.81
2795.4,-20.0,-274.0,-298.4901960784314,1.13,6.88,54.67
2795.45,106.0,-176.0,236.01960784313727,-3.9,15.59,71.15
2795.5,122.0,-143.0,175.01960784313727,1.31,20.18,71.92
2795.55,90.0,-160.0,206.01960784313727,-8.83,23.57,66.85
2795.6,90.0,-225.0,252.01960784313727,-35.92,24.27,71.08
2795.65,90.0,-192.0,282.01960784313724,-22.48,22.35,71.5
2795.7,27.0,-111.0,252.01960784313727,-20.21,16.61,74.34
2795.75,42.0,-176.0,298.01960784313724,18.7,9.68,53.13
2795.8,74.0,-78.0,252.01960784313727,33.26,1.77,60.27
2795.85,186.0,-241.0,-298.4901960784314,35.29,12.02,60.16
2795.9,42.0,-94.0,282.01960784313724,5.02,9.15,86.1
2795.95,90.0,-176.0,-313.4901960784314,-13.28,13.04,106.19
2796.0,224.50980392156862,313.0,236.01960784313727,-43.66,20.74,72.31
2796.05,-108.49019607843137,-35.509803921568626,-298.4901960784314,-40.86,22.07,9.69
2796.1,129.50980392156862,166.0,-313.4901960784314,-37.43,6.74,5.53
2796.15,-116.0,52.0,282.01960784313724,-7.64,-9.07,5.53
2796.2,-147.0,281.0,252.01960784313727,13.49,-29.09,-0.48
2796.25,-93.49019607843137,209.49019607843138,298.01960784313724,-14.85,-27.45,-25.72
2796.3,-22.980392156862745,264.0,-252.49019607843138,-30.39,-37.91,-7.2
2796.35,18.50980392156863,-116.50980392156863,-236.49019607843138,-53.56,-38.75,-1.04
2796.4,177.50980392156862,-198.50980392156862,-283.4901960784314,-61.23,-47.75,-8.15
2796.45,-156.49019607843138,-263.5098039215686,298.01960784313724,-35.71,-53.84,12.6
2796.5,-29.49019607843137,-116.50980392156863,282.01960784313724,-59.27,-71.58,12.91
2796.55,-45.490196078431374,-214.50980392156862,-175.49019607843138,-92.27,-86.25,3.92
2796.6,-45.490196078431374,-149.50980392156862,-21.49019607843137,-79.53,-122.47,-19.87
2796.65,-124.49019607843137,-263.5098039215686,-113.49019607843137,-42.5,-154.15,-36.78
2796.7,-267.4901960784314,-198.50980392156862,-36.490196078431374,-15.38,-154.39,-23.86
2796.75,-252.49019607843138,-35.509803921568626,-267.4901960784314,-26.79,-115.19,-23.76
2796.8,-77.49019607843137,248.0,236.01960784313727,-44.43,-67.73,-30.09
2796.85,-93.49019607843137,199.0,67.01960784313725,-61.82,28.33,-9.34
2796.9,295.01960784313724,313.0,-301.98039215686276,-14.68,32.46,16.2
2796.95,-283.4901960784314,281.0,129.01960784313727,54.02,-34.2,53.58
2797.0,-45.490196078431374,215.0,-236.49019607843138,74.0,-49.18,112.1
2797.05,-140.49019607843138,232.0,-67.49019607843137,21.36,-39.21,130.09
2797.1,-172.49019607843138,232.0,101.50980392156863,68.72,-32.17,74.2
2797.15,-77.49019607843137,183.0,-6.490196078431373,113.06,-37.91,60.62
2797.2,-156.49019607843138,232.0,55.509803921568626,89.19,-79.67,77.98
2797.25,-188.49019607843138,-296.5098039215686,209.50980392156862,96.82,-86.46,74.79
2797.3,-172.49019607843138,68.0,-310.0,33.79,-61.29,64.05
2797.35,-188.49019607843138,117.0,-129.49019607843138,52.34,-40.26,41.12
2797.4,-172.49019607843138,-198.50980392156862,-36.490196078431374,15.2,-35.99,38.15
2797.45,247.01960784313727,160.49019607843138,101.50980392156863,25.49,-33.01,19.63
2797.5,97.50980392156863,-296.5098039215686,116.50980392156863,3.51,-21.88,5.91
2797.55,-227.0,-133.50980392156862,39.509803921568626,8.97,-18.17,-8.18
2797.6,65.50980392156863,-182.50980392156862,116.50980392156863,3.83,-11.21,-30.13
2797.65,-204.49019607843138,-100.50980392156863,39.509803921568626,12.72,-3.4,-49.41
2797.7,-77.49019607843137,-51.509803921568626,-52.490196078431374,-21.29,16.29,-28.97
2797.75,113.50980392156863,-182.50980392156862,-113.49019607843137,12.23,-3.3,-6.12
2797.8,65.50980392156863,-133.50980392156862,255.50980392156862,24.48,-26.64,4.83
2797.85,34.509803921568626,-116.50980392156863,-141.0,10.93,1.63,-1.29
2797.9,49.509803921568626,-133.50980392156862,-37.490196078431374,-1.24,7.82,0.8
2797.95,-45.490196078431374,-133.50980392156862,55.509803921568626,18.77,-8.41,7.56
2798.0,-45.490196078431374,-100.50980392156863,209.50980392156862,29.17,-19.4,19.77
2798.05,-156.49019607843138,-182.50980392156862,147.50980392156862,26.86,-26.54,32.34
2798.1,-236.49019607843138,-35.509803921568626,55.509803921568626,32.46,-32.1,42.45
2798.15,231.01960784313727,-2.5098039215686274,116.50980392156863,40.19,-36.2,47.67
2798.2,-29.49019607843137,183.0,193.50980392156862,33.02,-21.25,46.27
2798.25,-77.49019607843137,264.0,116.50980392156863,47.65,23.96,19.32
2798.3,263.01960784313724,313.0,-113.49019607843137,28.4,55.77,4.09
2798.35,-124.49019607843137,248.0,-206.49019607843138,127.03,10.03,70.17
2798.4,-29.49019607843137,150.0,101.50980392156863,-24.09,-3.23,60.83
2798.45,-93.49019607843137,166.0,-52.490196078431374,10.58,-18.94,64.33
2798.5,-108.49019607843137,248.0,-6.490196078431373,51.18,-59.02,99.15
2798.55,-77.49019607843137,281.0,-295.0,76.87,-59.47,72.48
2798.6,-156.49019607843138,232.0,86.50980392156863,45.55,-39.59,50.4
2798.65,-220.49019607843138,183.0,-83.49019607843137,8.62,-28.88,33.53
2798.7,-77.49019607843137,183.0,24.50980392156863,11.11,-32.42,20.51
2798.75,-108.49019607843137,68.0,132.50980392156862,36.76,-38.93,24.95
2798.8,-172.49019607843138,101.0,55.509803921568626,38.27,-36.58,32.55
2798.85,-188.49019607843138,-149.50980392156862,-37.490196078431374,39.95,-34.62,26.56
2798.9,-299.4901960784314,193.49019607843138,24.50980392156863,30.04,-30.74,11.76
2798.95,18.50980392156863,68.0,101.50980392156863,19.68,-26.36,-4.72
2799.0,-306.0,-29.0,39.509803921568626,26.96,-12.82,-31.7
2799.05,-195.0,-165.50980392156862,-175.49019607843138,24.02,-7.01,-52.28
2799.1,-243.0,-67.50980392156863,-67.49019607843137,-38.27,17.55,-27.22
2799.15,-108.49019607843137,-236.01960784313727,-21.49019607843137,11.67,1.38,-20.68
2799.2,-299.4901960784314,-214.50980392156862,-67.49019607843137,34.49,3.1,-23.62
2799.25,-252.49019607843138,-296.5098039215686,132.50980392156862,0.05,15.94,-14.87
2799.3,-204.49019607843138,-182.50980392156862,224.50980392156862,-0.26,10.1,-5.31
2799.35,-156.49019607843138,-149.50980392156862,178.50980392156862,23.6,0.33,2.69
2799.4,-108.49019607843137,-263.5098039215686,55.509803921568626,34.21,-17.33,17.95
2799.45,-140.49019607843138,199.0,-21.49019607843137,32.32,-24.4,35.91
2799.5,-188.49019607843138,19.0,39.509803921568626,37.22,-35.6,47.42
2799.55,-252.49019607843138,3.0,9.509803921568627,48.49,-41.31,42.07
2799.6,88.01960784313725,117.0,55.509803921568626,37.08,-19.4,38.32
2799.65,-93.49019607843137,248.0,-36.490196078431374,38.93,20.95,24.25
2799.7,-93.49019607843137,248.0,86.50980392156863,37.71,44.36,12.21
2799.75,295.01960784313724,133.0,209.50980392156862,19.82,23.26,1.5
2799.8,-315.4901960784314,232.0,132.50980392156862,6.24,-31.79,48.09
2799.85,-124.49019607843137,-312.5098039215686,132.50980392156862,36.66,-8.41,59.95
2799.9,-77.49019607843137,-231.50980392156862,70.50980392156863,8.73,17.9,35.28
2799.95,-140.49019607843138,313.0,86.50980392156863,-75.02,30.92,-15.64
2800.0,-77.49019607843137,248.0,24.50980392156863,23.15,32.32,-74.16
2800.05,-29.49019607843137,313.0,9.509803921568627,93.11,39.6,-54.1
2800.1,2.5098039215686274,-263.5098039215686,-67.49019607843137,128.92,49.96,-69.75
2800.15,-124.49019607843137,-280.5098039215686,-144.49019607843138,-110.54,83.98,-48.33
2800.2,-204.49019607843138,297.0,-83.49019607843137,-209.49,79.61,-19.45
2800.25,200.01960784313727,313.0,-21.49019607843137,-190.31,50.7,6.58
2800.3,184.01960784313727,-165.50980392156862,-160.49019607843138,-53.56,12.79,26.53
2800.35,-124.49019607843137,-149.50980392156862,116.50980392156863,41.66,-10.3,25.37
2800.4,-299.4901960784314,215.0,-310.0,43.66,-17.26,-5.03
2800.45,247.01960784313727,297.0,193.50980392156862,-3.72,-18.17,-54.17
2800.5,216.01960784313727,-247.50980392156862,163.50980392156862,-25.63,-26.15,-112.66
2800.55,263.01960784313724,297.0,-264.0,-44.74,-21.29,-140.87
2800.6,-315.4901960784314,232.0,-187.0,-28.05,-24.54,-123.4
2800.65,-283.4901960784314,199.0,-156.0,13.14,-25.31,-118.99
2800.7,-204.49019607843138,313.0,-172.0,-57.62,-9.49,-129.63
2800.75,-236.49019607843138,313.0,-172.0,-140.78,2.75,-119.06
2800.8,-204.49019607843138,232.0,-233.0,-113.76,-7.39,-86.69
2800.85,-236.49019607843138,199.0,286.5098039215686,-31.37,-14.57,-62.75
2800.9,200.01960784313727,199.0,132.50980392156862,-43.69,-8.62,-45.74
2800.95,231.01960784313727,199.0,-67.49019607843137,-63.08,-8.16,-35.55
2801.0,97.50980392156863,68.0,-236.49019607843138,-55.38,-8.97,-28.31
2801.05,-29.49019607843137,3.0,282.01960784313724,-11.35,-14.36,-11.16
2801.1,-236.49019607843138,-62.0,-190.49019607843138,30.99,-11.38,18.16
2801.15,-156.49019607843138,150.0,-175.49019607843138,12.09,-5.78,44.45
2801.2,-172.49019607843138,-312.5098039215686,-52.490196078431374,31.51,-5.75,28.38
2801.25,-236.49019607843138,297.0,24.50980392156863,63.82,3.06,71.71
2801.3,-204.49019607843138,313.0,70.50980392156863,130.35,-0.78,108.5
2801.35,-140.49019607843138,297.0,70.50980392156863,110.47,12.76,83.93
2801.4,-140.49019607843138,297.0,24.50980392156863,102.91,23.33,69.82
2801.45,-156.49019607843138,-312.5098039215686,24.50980392156863,100.25,35.12,77.35
2801.5,-108.49019607843137,297.0,24.50980392156863,72.39,42.23,91.84
2801.55,-45.490196078431374,248.0,101.50980392156863,30.32,35.75,100.24
2801.6,-236.49019607843138,-312.5098039215686,224.50980392156862,-23.92,17.55,97.26
2801.65,247.01960784313727,-84.50980392156863,70.50980392156863,-4.98,-7.74,87.71
2801.7,-29.49019607843137,30.49019607843137,209.50980392156862,16.88,-26.64,71.22
2801.75,-283.4901960784314,-133.50980392156862,-264.0,6.45,-42.11,49.21
2801.8,104.01960784313725,-263.5098039215686,270.5098039215686,11.32,-48.59,22.99
2801.85,120.01960784313725,297.0,-295.0,10.86,-47.5,-17.95
2801.9,136.01960784313727,313.0,-295.0,3.02,-39.73,-13.54
2801.95,168.01960784313727,264.0,-295.0,30.39,-53.56,-5.03
2802.0,263.01960784313724,297.0,-264.0,18.84,-43.58,-38.74
2802.05,-315.4901960784314,248.0,-295.0,20.98,-11.77,-84.24
2802.1,-267.4901960784314,183.0,-310.0,4.56,-10.05,-87.74
2802.15,-299.4901960784314,117.0,270.5098039215686,7.05,-4.63,-83.43
2802.2,-283.4901960784314,101.0,101.50980392156863,-0.75,7.61,-70.55
2802.25,200.01960784313727,35.0,116.50980392156863,2.01,15.45,-39.68
2802.3,-299.4901960784314,52.0,-129.49019607843138,38.41,26.62,-10.53
2802.35,81.50980392156863,84.0,-129.49019607843138,-22.55,37.36,13.68
2802.4,-220.49019607843138,3.0,-52.490196078431374,-89.54,32.46,32.48
2802.45,-283.4901960784314,3.0,24.50980392156863,-75.19,23.54,41.23
2802.5,-220.49019607843138,232.0,39.509803921568626,-30.53,2.26,30.87
2802.55,-220.49019607843138,-296.5098039215686,86.50980392156863,-35.5,-34.83,-7.31
2802.6,-252.49019607843138,-312.5098039215686,55.509803921568626,-33.61,-49.5,2.38
2802.65,-172.49019607843138,-280.5098039215686,70.50980392156863,-23.36,-69.1,65.9
2802.7,-45.490196078431374,-263.5098039215686,70.50980392156863,-1.87,-45.05,93.41
2802.75,-61.490196078431374,-263.5098039215686,70.50980392156863,-13.21,-0.01,126.73
2802.8,-172.49019607843138,313.0,39.509803921568626,-26.09,28.19,153.23
2802.85,136.01960784313727,-280.5098039215686,-52.490196078431374,50.45,31.41,170.76
2802.9,295.01960784313724,-133.50980392156862,-67.49019607843137,90.98,25.18,173.39
2802.95,-188.49019607843138,-214.50980392156862,39.509803921568626,56.22,9.68,163.76
2803.0,184.01960784313727,248.0,55.509803921568626,23.29,3.94,137.83
2803.05,216.01960784313727,215.0,178.50980392156862,1.97,-2.6,102.48
2803.1,247.01960784313727,215.0,239.50980392156862,-1.94,-2.74,66.5
2803.15,295.01960784313724,199.0,301.5098039215686,20.98,-5.54,20.72
2803.2,-236.49019607843138,215.0,301.5098039215686,28.82,-22.02,-52.95
2803.25,-156.49019607843138,150.0,316.5098039215686,-32.63,-31.79,-73.35
2803.3,-108.49019607843137,-62.0,-280.0,-32.81,-41.55,-90.64
2803.35,-108.49019607843137,-62.0,255.50980392156862,54.05,-13.8,-131.56
2803.4,-204.49019607843138,150.0,86.50980392156863,45.65,-2.53,-149.41
2803.45,247.01960784313727,68.0,55.509803921568626,-24.09,-2.6,-147.1
2803.5,-181.98039215686273,35.0,86.50980392156863,-33.51,-6.31,-140.38
2803.55,-252.49019607843138,166.0,-98.49019607843137,58.46,-6.24,-113.43
2803.6,-77.49019607843137,264.0,-190.49019607843138,-14.36,-4.94,-78.99
2803.65,-267.4901960784314,52.0,-113.49019607843137,-72.32,-7.25,-42.69
2803.7,-77.49019607843137,68.0,-67.49019607843137,-10.65,-10.65,-15.29
2803.75,18.50980392156863,264.0,-113.49019607843137,3.23,-25.07,-1.18
2803.8,18.50980392156863,199.0,-52.490196078431374,9.53,-7.11,24.6
2803.85,18.50980392156863,150.0,-83.49019607843137,15.1,-1.27,83.3
2803.9,65.50980392156863,150.0,-21.49019607843137,10.79,13.67,122.5
2803.95,97.50980392156863,52.0,-6.490196078431373,36.87,42.09,129.99
2804.0,-93.49019607843137,52.0,55.509803921568626,23.29,52.45,131.21
2804.05,9.019607843137255,35.0,178.50980392156862,1.97,50.14,126.21
2804.1,41.01960784313726,-192.0,239.50980392156862,-1.94,36.17,119.03
2804.15,25.019607843137255,319.5098039215686,301.5098039215686,20.98,16.96,100.34
2804.2,200.01960784313727,188.50980392156862,301.5098039215686,28.82,6.81,60.65
2804.25,295.01960784313724,172.50980392156862,316.5098039215686,-32.63,-2.77,2.73
2804.3,152.01960784313727,90.50980392156863,-280.0,-32.81,-7.25,-56.31
2804.35,-22.980392156862745,286.5098039215686,255.50980392156862,54.05,-14.18,-84.73
2804.4,-6.980392156862745,-111.0,86.50980392156863,45.65,-19.29,-116.82
2804.45,-220.49019607843138,-13.0,55.509803921568626,-24.09,-21.5,-144.65
2804.5,-108.49019607843137,183.0,86.50980392156863,-33.51,-34.48,-122.35
2804.55,-108.49019607843137,264.0,-98.49019607843137,58.46,-44.21,-96.45
2804.6,295.01960784313724,-296.5098039215686,-190.49019607843138,-14.36,-16.67,-91.38
2804.65,120.01960784313725,297.0,-113.49019607843137,-72.32,-9.0,-73.98
2804.7,152.01960784313727,-296.5098039215686,-67.49019607843137,-10.65,-10.05,-49.52
2804.75,136.01960784313727,-312.5098039215686,-113.49019607843137,3.23,-14.32,-28.73
2804.8,247.01960784313727,232.0,-52.490196078431374,9.53,-18.1,0.94
2804.85,279.01960784313724,-312.5098039215686,-83.49019607843137,15.1,-18.94,28.14
2804.9,-315.4901960784314,281.0,-21.49019607843137,10.79,-24.79,41.86
2804.95,152.01960784313727,-312.5098039215686,-6.490196078431373,36.87,-33.19,31.36
2805.0,-197.98039215686273,281.0,-6.490196078431373,40.4,3.2,29.99
2805.05,-197.98039215686273,35.0,-129.49019607843138,9.32,25.95,46.27
2805.1,-117.98039215686275,52.0,224.50980392156862,-12.65,22.31,32.27
2805.15,-6.980392156862745,35.0,-264.0,5.02,15.38,-4.96
2805.2,216.01960784313727,-160.0,-218.0,70.99,-5.64,-61.28
2805.25,-29.49019607843137,-290.0,-95.0,24.86,-27.9,-83.99
2805.3,256.5098039215686,-258.0,-3.0,8.06,-49.67,-82.49
2805.35,320.5098039215686,-192.0,-33.0,16.46,-53.91,-65.23
2805.4,208.50980392156862,-94.0,286.5098039215686,49.54,-45.09,-71.11
2805.45,-29.49019607843137,183.0,-113.49019607843137,81.81,-22.93,-71.99
2805.5,295.01960784313724,-182.50980392156862,206.01960784313727,53.42,36.17,-17.7
2805.55,-197.98039215686273,-247.50980392156862,159.01960784313727,34.52,102.57,65.45
2805.6,295.01960784313724,-149.50980392156862,298.01960784313724,22.2,125.63,129.22
2805.65,-267.4901960784314,-116.50980392156863,-83.49019607843137,93.71,109.78,157.99
2805.7,-236.49019607843138,-133.50980392156862,24.50980392156863,146.73,93.12,149.41
2805.75,-108.49019607843137,-312.5098039215686,116.50980392156863,119.96,76.88,143.11
2805.8,18.50980392156863,-296.5098039215686,301.5098039215686,118.24,64.07,135.27
2805.85,-29.49019607843137,-100.50980392156863,-279.0,100.64,47.34,123.97
2805.9,-252.49019607843138,-198.50980392156862,-233.0,106.83,47.41,118.79
2805.95,247.01960784313727,84.0,-310.0,30.29,78.8,137.34
2806.0,279.01960784313724,-62.0,316.5098039215686,-102.0,86.19,194.46
2806.05,-252.49019607843138,35.0,-295.0,-85.94,63.33,231.63
2806.1,-220.49019607843138,133.0,193.50980392156862,-13.7,48.11,219.1
2806.15,-172.49019607843138,183.0,39.509803921568626,-8.48,29.28,164.57
2806.2,-108.49019607843137,166.0,24.50980392156863,-3.93,1.49,74.69
2806.25,-93.49019607843137,248.0,-36.490196078431374,10.86,-33.08,-24.7
2806.3,-93.49019607843137,248.0,-37.490196078431374,-3.9,-59.47,-115.95
2806.35,263.01960784313724,-263.5098039215686,24.50980392156863,-25.77,-70.04,-199.04
2806.4,-236.49019607843138,-35.509803921568626,147.50980392156862,-15.69,-68.05,-251.33
2806.45,-236.49019607843138,46.490196078431374,55.509803921568626,9.74,-81.1,-284.37
2806.5,-38.98039215686274,-35.509803921568626,9.509803921568627,-100.32,-47.33,-233.58
2806.55,-70.98039215686275,264.0,-52.490196078431374,-82.79,-64.93,-144.65
2806.6,-117.98039215686275,232.0,-83.49019607843137,-20.35,-54.12,-47.49
2806.65,-117.98039215686275,281.0,-160.49019607843138,-22.83,-18.91,16.17
2806.7,72.01960784313725,215.0,-113.49019607843137,-58.92,-17.33,38.01
2806.75,263.01960784313724,150.0,-98.49019607843137,6.84,-37.46,50.61
2806.8,-252.49019607843138,101.0,-83.49019607843137,142.67,-38.44,71.5
2806.85,-140.49019607843138,84.0,-252.49019607843138,177.99,-3.47,96.35
2806.9,-93.49019607843137,68.0,-298.4901960784314,78.52,43.91,108.04
2806.95,-13.490196078431373,3.0,-144.49019607843138,-14.96,63.05,107.87
2807.0,311.01960784313724,-94.0,70.50980392156863,-29.03,55.98,83.79
2807.05,-267.4901960784314,-45.0,-113.49019607843137,17.44,41.88,56.49
2807.1,18.50980392156863,117.0,-98.49019607843137,58.81,21.19,36.4
2807.15,311.01960784313724,117.0,-52.490196078431374,76.56,-10.12,26.07
2807.2,41.01960784313726,84.0,147.50980392156862,80.13,-30.49,21.24
2807.25,120.01960784313725,-296.5098039215686,116.50980392156863,78.38,-69.9,-4.58
2807.3,-283.4901960784314,-84.50980392156863,116.50980392156863,100.64,-85.65,-21.97
2807.35,-156.49019607843138,-51.509803921568626,101.50980392156863,179.32,-85.44,27.26
2807.4,-29.49019607843137,-165.50980392156862,162.50980392156862,284.21,-68.05,84.0
2807.45,-45.490196078431374,-67.50980392156863,39.509803921568626,232.97,-0.53,146.09
2807.5,2.5098039215686274,-51.509803921568626,-36.490196078431374,85.8,45.31,206.74
2807.55,-61.490196078431374,-165.50980392156862,-98.49019607843137,28.57,56.93,228.79
2807.6,-108.49019607843137,-231.50980392156862,-144.49019607843138,21.26,58.08,228.58
2807.65,-108.49019607843137,-296.5098039215686,-160.49019607843138,21.92,44.47,204.47
2807.7,-108.49019607843137,281.0,-36.490196078431374,32.07,32.88,161.87
2807.75,-38.98039215686274,-182.50980392156862,-175.49019607843138,13.07,27.77,105.66
2807.8,311.01960784313724,-280.5098039215686,-36.490196078431374,15.06,18.18,55.3
2807.85,231.01960784313727,232.0,178.50980392156862,30.29,13.42,10.64
2807.9,9.019607843137255,166.0,101.50980392156863,42.54,8.52,-36.74
2807.95,168.01960784313727,183.0,132.50980392156862,-10.41,-0.43,-123.16
2808.0,-299.4901960784314,166.0,286.5098039215686,-60.46,-7.85,-170.69
2808.05,-252.49019607843138,133.0,270.5098039215686,-16.43,-20.69,-198.72
2808.1,-108.49019607843137,166.0,316.5098039215686,-14.99,-6.97,-224.76
2808.15,-93.49019607843137,84.0,-310.0,-147.96,18.85,-231.76
2808.2,-45.490196078431374,68.0,301.5098039215686,-156.18,22.0,-190.18
2808.25,-29.49019607843137,117.0,270.5098039215686,-52.93,11.04,-160.71
2808.3,-108.49019607843137,166.0,178.50980392156862,-8.2,-1.51,-131.66
2808.35,-220.49019607843138,183.0,55.509803921568626,-24.13,-14.43,-96.59
2808.4,231.01960784313727,199.0,-67.49019607843137,-14.5,-18.73,-54.07
2808.45,25.019607843137255,68.0,-160.49019607843138,26.16,-24.44,-1.81
2808.5,-260.98039215686276,84.0,-160.49019607843138,11.04,-16.28,39.44
2808.55,-236.49019607843138,281.0,-267.4901960784314,16.64,-10.37,82.7
2808.6,65.50980392156863,-312.5098039215686,-129.49019607843138,27.31,-7.88,110.84
2808.65,-252.49019607843138,215.0,24.50980392156863,42.47,-27.8,94.99
2808.7,-140.49019607843138,166.0,86.50980392156863,85.73,-8.44,97.23
2808.75,-77.49019607843137,52.0,116.50980392156863,96.47,0.33,145.21
2808.8,-77.49019607843137,3.0,163.50980392156862,93.11,13.74,170.24
2808.85,-140.49019607843138,35.0,147.50980392156862,45.93,31.03,162.26
2808.9,-252.49019607843138,84.0,86.50980392156863,28.01,28.33,155.61
2808.95,-267.4901960784314,19.0,39.509803921568626,27.66,13.21,137.06
2809.0,-204.49019607843138,-45.0,39.509803921568626,106.2,6.07,114.73
2809.05,-236.49019607843138,232.0,-36.490196078431374,66.48,-5.96,85.36
2809.1,-93.49019607843137,117.0,-52.490196078431374,-14.85,-16.46,38.99
2809.15,-29.49019607843137,19.0,-6.490196078431373,12.19,-28.92,-11.93
2809.2,49.509803921568626,199.0,-36.490196078431374,84.85,-54.82,-67.96
2809.25,-156.49019607843138,-280.5098039215686,9.509803921568627,108.2,-79.11,-107.41
2809.3,184.01960784313727,-116.50980392156863,-175.49019607843138,155.55,-97.31,-146.4
2809.35,-236.49019607843138,-67.50980392156863,9.509803921568627,121.29,-99.86,-174.33
2809.4,216.01960784313727,-247.50980392156862,255.50980392156862,65.99,-85.27,-191.86
2809.45,120.01960784313725,-263.5098039215686,209.50980392156862,54.26,-27.45,-149.62
2809.5,136.01960784313727,-263.5098039215686,-295.0,56.33,-5.33,-65.86
2809.55,120.01960784313725,-280.5098039215686,-264.0,52.55,5.41,-21.06
2809.6,152.01960784313727,248.0,-187.0,39.0,56.61,3.81
2809.65,263.01960784313724,150.0,-172.0,37.67,53.36,40.32
2809.7,-315.4901960784314,166.0,-187.0,25.81,36.84,57.15
2809.75,-172.49019607843138,35.0,-233.0,41.77,23.61,41.3
2809.8,-252.49019607843138,52.0,286.5098039215686,51.78,6.95,14.77
2809.85,-220.49019607843138,35.0,132.50980392156862,0.36,-11.03,5.07
2809.9,247.01960784313727,-62.0,9.509803921568627,-24.65,-14.46,0.7
2809.95,136.01960784313727,19.0,-160.49019607843138,32.88,-5.71,4.16
2810.0,-77.49019607843137,84.0,-298.4901960784314,31.9,0.23,25.44
2810.05,-45.490196078431374,52.0,-160.49019607843138,-48.73,-2.07,29.19
2810.1,-315.4901960784314,-62.0,86.50980392156863,-110.72,-4.52,3.74
2810.15,-315.4901960784314,117.0,39.509803921568626,-81.6,-26.22,-20.12
2810.2,-140.49019607843138,281.0,70.50980392156863,-45.44,-41.24,-42.52
2810.25,-124.49019607843137,313.0,101.50980392156863,-24.37,-25.0,15.5
2810.3,-77.49019607843137,297.0,86.50980392156863,-36.48,-9.49,88.16
2810.35,-61.490196078431374,199.0,163.50980392156862,-51.74,31.17,136.32
2810.4,-29.49019607843137,183.0,116.50980392156863,-18.07,52.48,180.56
2810.45,-29.49019607843137,-280.5098039215686,-67.49019607843137,-8.45,45.94,200.51
2810.5,-172.49019607843138,-198.50980392156862,-206.49019607843138,-26.51,31.59,193.09
2810.55,-124.49019607843137,-133.50980392156862,267.01960784313724,-20.07,21.37,167.68
2810.6,-77.49019607843137,95.49019607843137,190.01960784313727,16.15,2.92,137.44
2810.65,311.01960784313724,-122.01960784313725,6.019607843137255,51.99,-6.83,104.96
2810.7,-29.49019607843137,-187.01960784313727,190.01960784313727,43.97,-27.48,71.99
2810.75,-315.4901960784314,-220.01960784313727,-283.4901960784314,23.78,-24.93,36.54
2810.8,216.01960784313727,-138.01960784313727,-206.49019607843138,-29.34,-33.22,-2.34
2810.85,-188.49019607843138,-302.01960784313724,-52.490196078431374,-37.39,-43.34,-60.68
2810.9,65.50980392156863,258.4901960784314,101.50980392156863,-63.96,-52.54,-87.49
2810.95,-227.0,111.49019607843137,9.509803921568627,-41.84,-58.28,-76.01
2811.0,27.0,177.49019607843138,-67.49019607843137,-78.06,-36.02,-87.56
2811.05,122.0,-67.50980392156863,55.509803921568626,-112.19,0.44,-116.02
2811.1,-298.5098039215686,-214.50980392156862,193.50980392156862,-81.95,20.81,-105.2
2811.15,-154.50980392156862,313.0,116.50980392156863,-70.82,9.92,-72.86
2811.2,-43.509803921568626,183.0,147.50980392156862,-46.81,8.56,-58.3
2811.25,-139.50980392156862,52.0,116.50980392156863,-49.96,1.17,-41.47
2811.3,-139.50980392156862,-45.0,101.50980392156863,-103.58,-3.37,-32.82
2811.35,-202.50980392156862,286.5098039215686,86.50980392156863,-76.07,-6.2,-24.04
2811.4,-186.50980392156862,-225.0,9.509803921568627,-81.53,-2.49,-4.23
2811.45,74.0,254.50980392156862,-67.49019607843137,-46.88,15.42,28.24
2811.5,-36.0,-258.0,-113.49019607843137,-28.99,30.12,67.79
2811.55,-4.0,-192.0,-283.4901960784314,-36.41,32.74,98.8
2811.6,122.0,-94.0,-298.4901960784314,0.85,75.3,176.43
2811.65,-282.5098039215686,-62.0,236.01960784313727,-6.8,103.13,262.32
2811.7,-234.50980392156862,-192.0,-236.49019607843138,-18.67,127.49,287.42
2811.75,-234.50980392156862,-143.0,-221.49019607843138,10.86,136.76,303.2
2811.8,-154.50980392156862,35.0,-206.49019607843138,-12.89,119.09,305.23
2811.85,-186.50980392156862,-45.0,-267.4901960784314,-4.88,85.56,297.11
2811.9,-91.50980392156863,3.0,-237.49019607843138,-27.17,45.76,282.59
2811.95,-27.50980392156863,-127.0,-236.49019607843138,-72.11,40.93,271.84
2812.0,-11.509803921568627,-78.0,-267.4901960784314,-53.84,18.18,255.64
2812.05,67.49019607843137,-241.0,190.01960784313727,-85.52,-2.21,239.22
2812.1,67.49019607843137,-13.0,286.5098039215686,-86.95,15.8,216.58
2812.15,-123.50980392156863,-143.0,55.509803921568626,-114.01,13.84,182.1
2812.2,-27.50980392156863,-78.0,39.509803921568626,-109.04,16.15,151.93
2812.25,83.49019607843137,183.0,-52.490196078431374,-81.49,3.73,135.17
2812.3,83.49019607843137,133.0,70.50980392156863,-92.97,4.57,116.97
2812.35,35.490196078431374,35.0,39.509803921568626,-61.72,13.0,70.73
2812.4,51.490196078431374,183.0,-37.490196078431374,-28.5,29.59,17.57
2812.45,-154.50980392156862,68.0,9.509803921568627,36.06,42.33,0.14
2812.5,-107.50980392156863,52.0,-52.490196078431374,147.19,48.77,-19.77
2812.55,-154.50980392156862,150.0,-175.49019607843138,224.64,15.49,-21.94
2812.6,-202.50980392156862,101.0,9.509803921568627,205.85,-44.28,-19.52
2812.65,-266.5098039215686,281.0,162.50980392156862,163.11,-105.32,-21.24
2812.7,233.0,232.0,9.509803921568627,170.92,-157.44,-17.77
2812.75,-4.0,-182.50980392156862,113.01960784313725,135.08,-199.19,-2.9
2812.8,90.0,-214.50980392156862,-313.4901960784314,-119.99,-168.92,8.26
2812.85,-84.0,-225.0,-313.4901960784314,-147.71,-156.49,25.65
2812.9,193.50980392156862,232.0,221.01960784313727,-70.99,-133.46,55.44
2812.95,177.50980392156862,-84.50980392156863,236.01960784313727,-34.28,-93.84,76.19
2813.0,81.50980392156863,-280.5098039215686,-267.4901960784314,-53.84,18.18,76.02
2813.05,-156.49019607843138,297.0,190.01960784313727,-85.52,-2.21,92.75
2813.1,-29.49019607843137,313.0,286.5098039215686,-86.95,15.8,84.84
2813.15,113.50980392156863,-312.5098039215686,55.509803921568626,-114.01,13.84,72.55
2813.2,65.50980392156863,-263.5098039215686,39.509803921568626,-109.04,16.15,65.73
2813.25,-61.490196078431374,-198.50980392156862,-52.490196078431374,-81.49,3.73,65.2
2813.3,-61.490196078431374,-296.5098039215686,70.50980392156863,-92.97,4.57,49.52
2813.35,-172.49019607843138,-296.5098039215686,39.509803921568626,-61.72,13.0,30.87
2813.4,-315.4901960784314,-84.50980392156863,-37.490196078431374,-28.5,29.59,-3.07
2813.45,231.01960784313727,111.49019607843137,9.509803921568627,36.06,42.33,-54.03
2813.5,-61.490196078431374,30.49019607843137,-52.490196078431374,147.19,48.77,-118.75
2813.55,168.01960784313727,-231.50980392156862,-175.49019607843138,224.64,15.49,-207.3
2813.6,41.01960784313726,-296.5098039215686,9.509803921568627,205.85,-44.28,-271.7
2813.65,57.01960784313726,-312.5098039215686,162.50980392156862,163.11,-105.32,-281.6
2813.7,57.01960784313726,-296.5098039215686,9.509803921568627,170.92,-157.44,-228.23
2813.75,231.01960784313727,297.0,113.01960784313725,135.08,-199.19,-183.99
2813.8,168.01960784313727,232.0,-313.4901960784314,-119.99,-168.92,-173.24
2813.85,-299.4901960784314,199.0,-313.4901960784314,-147.71,-156.49,-184.06
2813.9,-188.49019607843138,84.0,221.01960784313727,-70.99,-133.46,-184.27
2813.95,-124.49019607843137,133.0,236.01960784313727,-34.28,-93.84,-183.81
2814.0,-61.490196078431374,133.0,221.01960784313727,-93.57,-47.29,-183.18
2814.05,-156.49019607843138,84.0,159.01960784313727,-119.5,-56.11,-153.68
2814.1,295.01960784313724,-29.0,-206.49019607843138,-93.81,-75.57,-118.61
2814.15,-156.49019607843138,35.0,267.01960784313724,-29.2,-57.79,-113.39
2814.2,-61.490196078431374,84.0,221.01960784313727,17.69,-30.49,-110.1
2814.25,216.01960784313727,133.0,313.01960784313724,24.51,-16.81,-86.86
2814.3,311.01960784313724,-280.5098039215686,-206.49019607843138,-20.56,-6.24,-54.94
2814.35,-124.49019607843137,-214.50980392156862,-144.49019607843138,39.88,-17.19,-15.22
2814.4,-124.49019607843137,-198.50980392156862,-52.490196078431374,91.05,0.54,72.94
2814.45,-77.49019607843137,-247.50980392156862,-206.49019607843138,181.0,-9.63,152.42
2814.5,-45.490196078431374,-247.50980392156862,116.50980392156863,106.34,38.87,166.84
2814.55,-45.490196078431374,-312.5098039215686,255.50980392156862,60.67,52.03,179.76
2814.6,-13.490196078431373,297.0,193.50980392156862,40.33,45.9,190.36
2814.65,-108.49019607843137,264.0,270.5098039215686,9.71,35.79,196.56
2814.7,-156.49019607843138,215.0,316.5098039215686,42.5,0.51,185.08
2814.75,-172.49019607843138,281.0,-279.0,24.86,-1.86,166.98
2814.8,184.01960784313727,-198.50980392156862,-295.0,21.78,-13.06,135.83
2814.85,-252.49019607843138,-67.50980392156863,-295.0,-21.75,-13.03,84.87
2814.9,-156.49019607843138,-149.50980392156862,301.5098039215686,-8.76,-24.72,40.91
2814.95,152.01960784313727,281.0,224.50980392156862,14.43,-38.47,-2.86
2815.0,104.01960784313725,248.0,239.50980392156862,42.12,-48.41,-77.03
2815.05,136.01960784313727,281.0,316.5098039215686,15.48,-47.5,-146.22
2815.1,263.01960784313724,264.0,-295.0,2.67,-39.42,-158.4
2815.15,247.01960784313727,248.0,-295.0,-0.36,-39.1,-161.9
2815.2,-236.49019607843138,232.0,316.5098039215686,-65.32,-7.29,-154.13
2815.25,-188.49019607843138,150.0,316.5098039215686,-58.92,4.15,-108.7
2815.3,-172.49019607843138,101.0,286.5098039215686,-8.55,-6.9,-63.17
2815.35,-61.490196078431374,117.0,209.50980392156862,0.71,-2.88,-39.4
2815.4,-172.49019607843138,150.0,24.50980392156863,0.54,-3.68,-16.69
2815.45,168.01960784313727,101.0,-83.49019607843137,9.85,-6.97,11.58
2815.5,216.01960784313727,19.0,-175.49019607843138,23.18,-3.12,39.37
2815.55,34.509803921568626,117.0,-175.49019607843138,31.65,1.7,55.72
2815.6,-267.4901960784314,19.0,9.509803921568627,31.09,1.98,63.42
2815.65,-315.4901960784314,150.0,55.509803921568626,13.98,0.23,71.29
2815.7,-188.49019607843138,-263.5098039215686,116.50980392156863,8.8,-20.8,64.08
2815.75,-108.49019607843137,-247.50980392156862,86.50980392156863,74.49,-46.52,33.84
2815.8,-124.49019607843137,-263.5098039215686,162.50980392156862,159.19,-43.86,80.78
2815.85,-93.49019607843137,-296.5098039215686,86.50980392156863,211.97,-34.1,114.1
2815.9,-77.49019607843137,-312.5098039215686,9.509803921568627,157.06,-1.02,115.99
2815.95,-61.490196078431374,297.0,9.509803921568627,72.39,24.24,125.82
2816.0,104.01960784313725,248.0,239.50980392156862,30.01,34.11,150.01
2816.05,136.01960784313727,281.0,316.5098039215686,27.03,14.93,160.93
2816.1,263.01960784313724,264.0,-295.0,19.65,2.26,154.07
2816.15,247.01960784313727,248.0,-295.0,30.32,-12.57,130.13
2816.2,-236.49019607843138,232.0,316.5098039215686,17.65,-18.42,93.2
2816.25,-188.49019607843138,150.0,316.5098039215686,-4.6,-24.82,48.58
2816.3,-172.49019607843138,101.0,286.5098039215686,11.07,-40.57,-10.14
2816.35,-61.490196078431374,117.0,209.50980392156862,39.28,-49.81,-57.29
2816.4,-172.49019607843138,150.0,24.50980392156863,46.88,-53.42,-116.47
2816.45,168.01960784313727,101.0,-83.49019607843137,-18.7,-35.85,-104.71
2816.5,216.01960784313727,19.0,-175.49019607843138,15.73,-39.35,-89.91
2816.55,34.509803921568626,117.0,-175.49019607843138,-78.1,8.07,-122.0
2816.6,-267.4901960784314,19.0,9.509803921568627,-113.59,20.32,-123.51
2816.65,-315.4901960784314,150.0,55.509803921568626,-62.42,9.15,-98.27
2816.7,-188.49019607843138,-263.5098039215686,116.50980392156863,-20.1,-4.7,-74.72
2816.75,-108.49019607843137,-247.50980392156862,86.50980392156863,-10.48,-8.51,-53.19
2816.8,-124.49019607843137,-263.5098039215686,162.50980392156862,-8.73,-10.3,-19.52
2816.85,-93.49019607843137,-296.5098039215686,86.50980392156863,-12.37,-5.5,5.14
2816.9,-77.49019607843137,-312.5098039215686,9.509803921568627,-5.93,-5.47,23.31
2816.95,-61.490196078431374,297.0,9.509803921568627,20.91,-13.66,36.43
2817.0,-124.49019607843137,-312.5098039215686,-21.49019607843137,28.4,-20.38,38.36
2817.05,-140.49019607843138,297.0,-21.49019607843137,67.53,-28.29,19.56
2817.1,-93.49019607843137,-312.5098039215686,-6.490196078431373,97.17,-5.43,49.52
2817.15,-93.49019607843137,-182.50980392156862,-129.49019607843138,144.04,9.43,87.32
2817.2,2.5098039215686274,-133.50980392156862,86.50980392156863,74.04,38.69,113.54
2817.25,-108.49019607843137,264.0,209.50980392156862,41.94,49.75,142.76
2817.3,-236.49019607843138,281.0,178.50980392156862,56.54,43.14,161.03
2817.35,9.019607843137255,-312.5098039215686,316.5098039215686,24.02,52.06,152.95
2817.4,-252.49019607843138,248.0,316.5098039215686,-1.55,32.71,133.21
2817.45,-283.4901960784314,199.0,-203.0,-14.96,9.89,96.84
2817.5,72.01960784313725,166.0,-233.0,5.79,-9.77,58.83
2817.55,168.01960784313727,199.0,-264.0,17.72,-25.1,22.36
2817.6,279.01960784313724,150.0,-310.0,25.46,-38.19,-16.62
2817.65,-299.4901960784314,133.0,209.50980392156862,15.94,-51.98,-84.83
2817.7,-220.49019607843138,68.0,86.50980392156863,0.05,-45.12,-116.16
2817.75,-140.49019607843138,117.0,-98.49019607843137,41.31,-53.38,-91.69
2817.8,-140.49019607843138,166.0,-236.49019607843138,-24.41,-25.07,-106.01
2817.85,-220.49019607843138,3.0,-190.49019607843138,-118.73,7.72,-127.92
2817.9,-124.49019607843137,-13.0,-36.490196078431374,-81.21,5.23,-114.79
2817.95,-252.49019607843138,297.0,-36.490196078431374,-10.65,-4.28,-94.88
2818.0,184.01960784313727,-231.50980392156862,70.50980392156863,-14.82,-3.05,-71.18
2818.05,247.01960784313727,-296.5098039215686,70.50980392156863,-23.71,-6.24,-43.57
2818.1,65.50980392156863,297.0,116.50980392156863,-9.57,-8.76,-13.15
2818.15,18.50980392156863,-263.5098039215686,39.509803921568626,23.43,-14.85,11.65
2818.2,-267.4901960784314,-247.50980392156862,24.50980392156863,35.54,-18.24,30.73
2818.25,247.01960784313727,-247.50980392156862,9.509803921568627,39.88,-30.0,42.94
2818.3,-204.49019607843138,-312.5098039215686,24.50980392156863,72.15,-21.11,48.93
2818.35,-172.49019607843138,-182.50980392156862,-113.49019607843137,114.36,-3.3,99.19
2818.4,-140.49019607843138,-182.50980392156862,-67.49019607843137,119.08,18.71,130.97
2818.45,-188.49019607843138,281.0,147.50980392156862,50.38,47.16,118.54
2818.5,-315.4901960784314,166.0,70.50980392156863,41.63,55.56,116.9
2818.55,-299.4901960784314,297.0,178.50980392156862,36.45,54.93,121.59
2818.6,-299.4901960784314,248.0,316.5098039215686,1.62,44.78,114.34
2818.65,-188.49019607843138,183.0,-249.0,-6.49,25.67,92.85
2818.7,-61.490196078431374,215.0,-218.0,2.15,6.39,65.03
2818.75,136.01960784313727,232.0,-187.0,18.74,-22.13,34.44
2818.8,247.01960784313727,166.0,-95.0,-4.7,-31.26,14.28
2818.85,-252.49019607843138,297.0,-280.0,0.57,-49.81,-6.96
2818.9,279.01960784313724,183.0,178.50980392156862,73.02,-57.76,-33.31
2818.95,279.01960784313724,297.0,55.509803921568626,21.43,-62.13,-89.14
2819.0,295.01960784313724,68.0,24.50980392156863,-15.94,-70.25,-85.04
2819.05,-204.49019607843138,52.0,-98.49019607843137,73.55,-84.6,-44.44
2819.1,-299.4901960784314,248.0,-252.49019607843138,42.75,-71.97,-58.9
2819.15,263.01960784313724,84.0,24.50980392156863,0.15,-55.8,-102.33
2819.2,-283.4901960784314,68.0,-37.490196078431374,13.1,-26.71,-93.72
2819.25,-220.49019607843138,313.0,-144.49019607843138,11.11,-14.64,-23.37
2819.3,-267.4901960784314,281.0,-21.49019607843137,16.64,-10.65,23.73
2819.35,-236.49019607843138,313.0,24.50980392156863,77.12,-12.54,46.44
2819.4,-299.4901960784314,-263.5098039215686,9.509803921568627,98.33,2.54,60.86
2819.45,-283.4901960784314,-296.5098039215686,70.50980392156863,42.96,26.48,79.62
2819.5,57.01960784313726,199.0,101.50980392156863,11.49,34.35,113.89
2819.55,-252.49019607843138,248.0,178.50980392156862,-6.66,23.64,121.94
2819.6,129.50980392156862,232.0,301.5098039215686,-9.04,-5.5,99.57
2819.65,-267.4901960784314,232.0,-264.0,53.46,-50.44,53.48
2819.7,-124.49019607843137,313.0,-249.0,137.7,-64.09,6.96
2819.75,-77.49019607843137,-198.50980392156862,286.5098039215686,162.34,-47.89,56.59
2819.8,-77.49019607843137,-182.50980392156862,270.5098039215686,87.76,-36.3,90.16
2819.85,-172.49019607843138,215.0,-203.0,24.69,-24.58,76.09
2819.9,-188.49019607843138,232.0,-279.0,72.64,-15.2,45.01
2819.95,-188.49019607843138,-214.50980392156862,-218.0,59.58,-23.88,37.13
2820.0,-236.49019607843138,-247.50980392156862,-95.0,79.32,-44.18,52.29
2820.05,200.01960784313727,-198.50980392156862,-126.0,92.97,-50.48,62.68
2820.1,279.01960784313724,-214.50980392156862,-187.0,71.41,-39.84,61.21
2820.15,136.01960784313727,-231.50980392156862,-295.0,54.82,-38.89,58.48
2820.2,9.019607843137255,-280.5098039215686,-310.0,60.81,-38.47,47.42
2820.25,184.01960784313727,-296.5098039215686,286.5098039215686,55.45,-24.4,29.26
2820.3,231.01960784313727,297.0,209.50980392156862,33.47,-9.21,7.14
2820.35,263.01960784313724,232.0,193.50980392156862,14.5,8.1,-9.69
2820.4,311.01960784313724,215.0,147.50980392156862,-5.47,21.54,-39.4
2820.45,-299.4901960784314,199.0,116.50980392156863,-58.22,36.87,-82.52
2820.5,-236.49019607843138,199.0,178.50980392156862,-4.25,17.03,-42.2
2820.55,-236.49019607843138,-312.5098039215686,178.50980392156862,52.34,-10.79,-19.52
2820.6,-283.4901960784314,-280.5098039215686,239.50980392156862,-10.72,1.87,-40.38
2820.65,216.01960784313727,199.0,239.50980392156862,-9.78,-12.75,-39.96
2820.7,-156.49019607843138,313.0,270.5098039215686,67.91,-44.7,-20.26
2820.75,-236.49019607843138,-214.50980392156862,193.50980392156862,115.37,-60.98,-2.62
2820.8,-283.4901960784314,-214.50980392156862,147.50980392156862,129.13,-59.37,19.0
2820.85,-188.49019607843138,-280.5098039215686,70.50980392156863,136.79,-46.38,41.16
2820.9,-188.49019607843138,-280.5098039215686,86.50980392156863,119.82,-24.65,64.08
2820.95,-140.49019607843138,-312.5098039215686,132.50980392156862,120.94,-22.02,67.13
2821.0,-108.49019607843137,101.0,239.50980392156862,132.63,-11.14,73.04
2821.05,-93.49019607843137,133.0,255.50980392156862,138.79,-3.65,74.16
2821.1,-77.49019607843137,166.0,-203.0,104.49,7.47,58.69
2821.15,-93.49019607843137,183.0,-49.0,92.73,8.98,60.09
2821.2,-172.49019607843138,248.0,-18.0,106.31,-5.22,88.55
2821.25,-204.49019607843138,264.0,-18.0,118.98,-13.59,100.41
2821.3,-236.49019607843138,297.0,-64.0,107.88,-11.35,96.98
2821.35,231.01960784313727,313.0,-110.0,75.61,-0.57,76.82
2821.4,216.01960784313727,-280.5098039215686,-156.0,54.33,2.12,55.93
2821.45,-299.4901960784314,-312.5098039215686,-187.0,44.85,-2.88,36.64
2821.5,184.01960784313727,248.0,-218.0,35.19,-3.16,18.65
2821.55,231.01960784313727,264.0,-279.0,18.7,-3.3,-6.22
2821.6,-315.4901960784314,133.0,316.5098039215686,2.01,-10.72,-7.76
2821.65,-188.49019607843138,133.0,255.50980392156862,51.85,-38.3,24.78
2821.7,-77.49019607843137,133.0,178.50980392156862,63.71,-31.12,37.69
2821.75,-61.490196078431374,117.0,70.50980392156863,12.26,-15.06,31.92
2821.8,2.5098039215686274,150.0,86.50980392156863,12.4,-11.8,30.97
2821.85,-45.490196078431374,232.0,9.509803921568627,25.95,-16.46,18.93
2821.9,-188.49019607843138,313.0,9.509803921568627,45.2,-23.98,10.67
2821.95,-315.4901960784314,-280.5098039215686,24.50980392156863,38.2,-25.77,-4.09
2822.0,88.01960784313725,248.0,39.509803921568626,30.39,-19.96,-19.49
2822.05,104.01960784313725,-312.5098039215686,55.509803921568626,18.0,-9.11,-27.54
2822.1,49.509803921568626,-100.50980392156863,55.509803921568626,3.93,-0.57,-31.18
2822.15,-204.49019607843138,297.0,55.509803921568626,0.33,3.9,-29.46
2822.2,-140.49019607843138,183.0,39.509803921568626,-6.8,4.32,-12.84
2822.25,97.50980392156863,264.0,39.509803921568626,-5.54,-2.46,-1.74
2822.3,113.50980392156863,-280.5098039215686,24.50980392156863,-3.27,-5.43,-9.3
2822.35,-13.490196078431373,313.0,55.509803921568626,4.74,18.92,31.74
2822.4,-93.49019607843137,133.0,-36.490196078431374,25.32,16.01,73.15
2822.45,-29.49019607843137,199.0,209.50980392156862,1.76,31.1,82.07
2822.5,-45.490196078431374,248.0,132.50980392156862,0.47,45.1,99.15
2822.55,-108.49019607843137,199.0,255.50980392156862,-26.86,52.06,97.58
2822.6,-172.49019607843138,281.0,193.50980392156862,-32.42,53.11,74.44
2822.65,57.01960784313726,-263.5098039215686,209.50980392156862,-22.34,48.42,39.65
2822.7,-299.4901960784314,-133.50980392156862,239.50980392156862,-34.38,41.14,-6.96
2822.75,152.01960784313727,215.0,193.50980392156862,-25.81,25.57,-54.14
2822.8,72.01960784313725,183.0,224.50980392156862,-14.12,11.71,-91.69
2822.85,247.01960784313727,215.0,178.50980392156862,4.14,3.34,-124.17
2822.9,-315.4901960784314,150.0,101.50980392156863,-7.71,7.96,-141.36
2822.95,-77.49019607843137,183.0,-6.490196078431373,-107.39,25.71,-170.72
2823.0,-93.49019607843137,166.0,224.50980392156862,-154.96,34.95,-146.15
2823.05,-61.490196078431374,117.0,270.5098039215686,-27.73,1.8,-74.3
2823.1,-45.490196078431374,166.0,286.5098039215686,-38.72,9.01,-49.41
2823.15,-61.490196078431374,281.0,255.50980392156862,-90.42,9.57,-35.97
2823.2,-188.49019607843138,313.0,209.50980392156862,-48.31,-22.27,-42.2
2823.25,231.01960784313727,297.0,224.50980392156862,20.35,-42.18,-47.21
2823.3,-117.98039215686275,313.0,286.5098039215686,48.1,-40.4,-37.55
2823.35,-267.4901960784314,-67.50980392156863,55.509803921568626,-34.8,-18.52,-18.47
2823.4,2.5098039215686274,-214.50980392156862,55.509803921568626,-27.28,-11.8,0.73
2823.45,311.01960784313724,19.0,147.50980392156862,-18.63,-9.98,7.28
2823.5,-108.49019607843137,199.0,39.509803921568626,-29.59,-10.65,10.15
2823.55,2.5098039215686274,248.0,55.509803921568626,-29.59,-21.71,-7.17
2823.6,-61.490196078431374,199.0,70.50980392156863,-16.85,-1.93,-16.76
2823.65,-108.49019607843137,199.0,86.50980392156863,64.27,2.68,66.43
2823.7,-93.49019607843137,215.0,55.509803921568626,18.42,30.19,107.83
2823.75,-45.490196078431374,248.0,24.50980392156863,-30.6,54.23,133.63
2823.8,-124.49019607843137,199.0,24.50980392156863,-19.44,49.58,140.8
2823.85,-220.49019607843138,248.0,-21.49019607843137,-16.15,37.92,110.14
2823.9,168.01960784313727,264.0,-67.49019607843137,39.49,7.37,55.3
2823.95,216.01960784313727,-263.5098039215686,-21.49019607843137,41.98,4.43,6.96
2824.0,-188.49019607843138,313.0,101.50980392156863,2.92,10.62,-36.04
2824.05,279.01960784313724,232.0,147.50980392156862,-16.25,10.2,-67.75
2824.1,263.01960784313724,232.0,316.5098039215686,-20.91,3.8,-89.84
2824.15,311.01960784313724,248.0,-310.0,-29.2,4.64,-114.44
2824.2,-236.49019607843138,264.0,-295.0,-77.33,13.88,-143.25
2824.25,-236.49019607843138,248.0,-310.0,-125.35,9.89,-159.7
2824.3,-172.49019607843138,215.0,-310.0,32.39,-39.14,-66.81
2824.35,-124.49019607843137,166.0,301.5098039215686,75.12,-39.07,-10.74
2824.4,-172.49019607843138,215.0,286.5098039215686,-89.09,4.29,-26.87
2824.45,-220.49019607843138,264.0,270.5098039215686,-74.28,8.07,-16.9
2824.5,-299.4901960784314,281.0,255.50980392156862,-51.78,10.24,-11.23
2824.55,216.01960784313727,313.0,178.50980392156862,-55.49,12.09,-11.82
2824.6,72.01960784313725,297.0,224.50980392156862,-59.27,11.29,-4.54
2824.65,-149.98039215686273,-312.5098039215686,224.50980392156862,-31.51,-4.59,3.18
2824.7,-29.49019607843137,-198.50980392156862,255.50980392156862,-7.29,-13.59,2.52
2824.75,-29.49019607843137,199.0,270.5098039215686,-7.43,-10.72,1.68
2824.8,-267.4901960784314,-45.0,-295.0,-12.33,-17.16,-3.49
2824.85,-188.49019607843138,264.0,-295.0,-24.06,-1.23,-27.85
2824.9,34.509803921568626,-312.5098039215686,270.5098039215686,3.79,12.34,14.59
2824.95,-29.49019607843137,-296.5098039215686,163.50980392156862,16.25,14.58,55.33
2825.0,-188.49019607843138,248.0,101.50980392156863,-24.3,45.06,45.71
2825.05,-108.49019607843137,183.0,55.509803921568626,-55.73,63.16,31.01
2825.1,-140.49019607843138,313.0,-36.490196078431374,-62.63,60.32,31.6
2825.15,-188.49019607843138,297.0,-83.49019607843137,-38.13,39.78,31.08
2825.2,-220.49019607843138,281.0,-144.49019607843138,-19.16,24.03,9.03
2825.25,88.01960784313725,-84.50980392156863,252.01960784313727,-11.63,14.02,-20.57
2825.3,200.01960784313727,-2.5098039215686274,221.01960784313727,-24.23,9.96,-56.48
2825.35,279.01960784313724,-231.50980392156862,-206.49019607843138,-40.47,10.31,-90.89
2825.4,72.01960784313725,52.0,-129.49019607843138,-42.78,7.47,-109.16
2825.45,216.01960784313727,68.0,-36.490196078431374,-39.91,8.24,-116.09
2825.5,-204.49019607843138,19.0,86.50980392156863,-51.88,24.87,-113.53
2825.55,-13.490196078431373,3.0,193.50980392156862,-104.35,39.74,-111.99
2825.6,113.50980392156863,-45.0,163.50980392156862,-170.39,54.69,-76.61
2825.65,224.50980392156862,-127.0,86.50980392156863,-74.18,21.23,-7.97
2825.7,224.50980392156862,-143.0,9.509803921568627,-48.63,31.38,-2.16
2825.75,224.50980392156862,-241.0,-6.490196078431373,-153.42,63.3,-49.17
2825.8,224.50980392156862,-209.0,9.509803921568627,-140.71,51.43,-63.2
2825.85,161.50980392156862,-241.0,86.50980392156863,-46.7,-8.83,-48.92
2825.9,-29.49019607843137,-176.0,132.50980392156862,-3.55,-27.59,-57.08
2825.95,216.01960784313727,52.0,224.50980392156862,-25.07,-22.55,-64.43
2826.0,88.01960784313725,-231.50980392156862,101.50980392156863,-71.34,-26.78,-56.13
2826.05,-315.4901960784314,-165.50980392156862,55.509803921568626,-5.54,-32.35,-45.28
2826.1,247.01960784313727,-263.5098039215686,86.50980392156863,-28.4,-23.21,-29.88
2826.15,88.01960784313725,264.0,24.50980392156863,-69.42,-11.21,-9.69
2826.2,184.01960784313727,248.0,-36.490196078431374,-85.73,17.2,8.05
2826.25,-220.49019607843138,248.0,70.50980392156863,-102.04,87.55,79.1
2826.3,-252.49019607843138,264.0,9.509803921568627,-84.57,133.05,120.33
2826.35,-172.49019607843138,313.0,9.509803921568627,-67.46,170.57,112.14
2826.4,-61.490196078431374,248.0,-6.490196078431373,-63.4,158.46,86.24
2826.45,-61.490196078431374,166.0,-52.490196078431374,-45.44,141.7,65.13
2826.5,-108.49019607843137,166.0,-67.49019607843137,-34.21,115.13,49.87
2826.55,-108.49019607843137,133.0,-98.49019607843137,-30.46,84.05,34.16
2826.6,-93.49019607843137,117.0,-67.49019607843137,-40.3,48.42,14.87
2826.65,-77.49019607843137,52.0,-36.490196078431374,-22.27,24.17,-6.15
2826.7,184.01960784313727,232.0,-52.490196078431374,12.26,3.69,-27.57
2826.75,-315.4901960784314,-312.5098039215686,9.509803921568627,53.46,-26.22,-57.46
2826.8,-140.49019607843138,264.0,70.50980392156863,34.14,-54.01,-90.08
2826.85,-315.4901960784314,199.0,101.50980392156863,-5.54,-72.91,-159.73
2826.9,216.01960784313727,199.0,163.50980392156862,-29.48,-50.51,-224.38
2826.95,-283.4901960784314,215.0,286.5098039215686,-42.4,-23.0,-237.82
2827.0,-236.49019607843138,215.0,-310.0,-23.95,-42.95,-211.25
2827.05,-204.49019607843138,248.0,270.5098039215686,0.96,-72.74,-190.64
2827.1,-156.49019607843138,248.0,270.5098039215686,-8.59,-66.26,-169.29
2827.15,-188.49019607843138,183.0,286.5098039215686,-27.1,-39.31,-118.4
2827.2,-172.49019607843138,133.0,209.50980392156862,-18.95,-25.24,-66.88
2827.25,-252.49019607843138,166.0,147.50980392156862,2.71,-3.02,-31.84
2827.3,-252.49019607843138,183.0,39.509803921568626,-63.29,4.04,-10.7
2827.35,200.01960784313727,117.0,86.50980392156863,-126.92,8.59,7.49
2827.4,-54.98039215686274,101.0,86.50980392156863,-45.2,15.38,19.56
2827.45,-140.49019607843138,-312.5098039215686,39.509803921568626,-32.77,17.8,33.42
2827.5,-93.49019607843137,248.0,70.50980392156863,-95.0,20.14,43.99
2827.55,-283.4901960784314,52.0,116.50980392156863,-84.75,20.35,46.62
2827.6,-108.49019607843137,166.0,132.50980392156862,-45.02,1.28,8.19
2827.65,18.50980392156863,248.0,86.50980392156863,-37.67,8.91,-31.11
2827.7,-13.490196078431373,183.0,101.50980392156863,-39.07,9.99,-0.41
2827.75,-29.49019607843137,166.0,86.50980392156863,-26.26,-3.86,42.94
2827.8,-13.490196078431373,183.0,39.509803921568626,-15.31,21.54,34.33
2827.85,-45.490196078431374,199.0,-21.49019607843137,-15.48,40.2,20.09
2827.9,-61.490196078431374,199.0,-37.490196078431374,-11.74,37.01,22.54
2827.95,-77.49019607843137,183.0,-52.490196078431374,13.91,23.89,33.88
2828.0,-45.490196078431374,248.0,-83.49019607843137,46.98,9.05,34.44
2828.05,279.01960784313724,281.0,-160.49019607843138,10.2,-3.93,20.72
2828.1,279.01960784313724,-312.5098039215686,-129.49019607843138,21.64,-6.83,-2.2
2828.15,-283.4901960784314,232.0,101.50980392156863,-35.61,-10.4,-30.23
2828.2,57.01960784313726,248.0,-6.490196078431373,-23.29,-13.27,-56.83
2828.25,295.01960784313724,313.0,178.50980392156862,-14.15,-9.0,-81.47
2828.3,-299.4901960784314,248.0,209.50980392156862,-25.42,14.12,-123.3
2828.35,-267.4901960784314,183.0,286.5098039215686,-32.98,32.15,-107.48
2828.4,-172.49019607843138,133.0,-310.0,-19.86,15.98,-46.12
2828.45,-61.490196078431374,150.0,-310.0,12.4,26.97,-20.08
2828.5,2.5098039215686274,183.0,316.5098039215686,53.04,42.65,-29.92
2828.55,-29.49019607843137,215.0,224.50980392156862,106.06,31.73,-29.92
2828.6,-108.49019607843137,-247.50980392156862,70.50980392156863,98.57,16.12,-29.67
2828.65,311.01960784313724,297.0,-21.49019607843137,49.78,8.0,-34.43
2828.7,72.01960784313725,264.0,-175.49019607843138,-14.92,0.33,-33.98
2828.75,-140.49019607843138,68.0,-175.49019607843138,-6.17,-11.28,-29.92
2828.8,49.509803921568626,101.0,-36.490196078431374,-103.72,-15.65,-29.5
2828.85,-236.49019607843138,-45.0,-52.490196078431374,-99.62,-16.63,-26.98
2828.9,-172.49019607843138,84.0,39.509803921568626,-56.36,-21.22,-18.26
2828.95,18.50980392156863,150.0,101.50980392156863,-12.61,-35.01,-15.36
2829.0,18.50980392156863,150.0,-83.49019607843137,46.98,-27.34,-47.59
2829.05,-29.49019607843137,19.0,-160.49019607843138,10.2,26.93,-3.6
2829.1,-93.49019607843137,117.0,-129.49019607843138,21.64,31.48,42.31
2829.15,-108.49019607843137,166.0,101.50980392156863,-35.61,59.83,66.53
2829.2,-204.49019607843138,84.0,-6.490196078431373,-23.29,57.35,105.14
2829.25,-204.49019607843138,84.0,178.50980392156862,-14.15,53.64,119.21
2829.3,-140.49019607843138,166.0,209.50980392156862,-25.42,44.12,108.92
2829.35,104.01960784313725,166.0,286.5098039215686,-32.98,26.27,78.19
2829.4,-299.4901960784314,-312.5098039215686,-310.0,-19.86,5.3,31.74
2829.45,-220.49019607843138,313.0,-310.0,12.4,-14.25,-14.8
2829.5,-299.4901960784314,281.0,316.5098039215686,53.04,-33.82,-46.44
2829.55,295.01960784313724,313.0,224.50980392156862,106.06,-50.2,-57.99
2829.6,295.01960784313724,281.0,70.50980392156863,98.57,-46.24,-76.68
2829.65,-315.4901960784314,264.0,-21.49019607843137,49.78,-30.7,-82.94
2829.7,-252.49019607843138,297.0,-175.49019607843138,-14.92,-6.34,-27.5
2829.75,-236.49019607843138,-312.5098039215686,-175.49019607843138,-6.17,1.73,-11.58
2829.8,-252.49019607843138,313.0,-36.490196078431374,-103.72,28.16,-39.12
2829.85,-236.49019607843138,248.0,-52.490196078431374,-99.62,29.87,-40.8
2829.9,-236.49019607843138,183.0,39.509803921568626,-56.36,8.84,-26.38
2829.95,-204.49019607843138,199.0,101.50980392156863,-12.61,-11.87,-30.65
2830.0,-204.49019607843138,183.0,70.50980392156863,-50.55,-27.76,-43.71
2830.05,263.01960784313724,166.0,116.50980392156863,-31.16,-45.75,-47.24
2830.1,41.01960784313726,84.0,24.50980392156863,17.44,-55.52,-41.99
2830.15,-172.49019607843138,183.0,-83.49019607843137,5.3,-39.8,-36.01
2830.2,-45.490196078431374,199.0,-98.49019607843137,-19.19,-14.43,-15.32
2830.25,-220.49019607843138,19.0,-67.49019607843137,-4.91,-16.42,-10.67
2830.3,-267.4901960784314,101.0,-67.49019607843137,-31.58,8.07,-18.44
2830.35,-188.49019607843138,313.0,-113.49019607843137,4.42,15.24,8.89
2830.4,-93.49019607843137,281.0,-36.490196078431374,31.13,16.82,39.72
2830.45,-172.49019607843138,199.0,101.50980392156863,28.57,24.24,51.97
2830.5,-172.49019607843138,248.0,116.50980392156863,44.04,34.84,54.32
2830.55,-156.49019607843138,297.0,116.50980392156863,36.31,40.55,50.82
2830.6,-156.49019607843138,313.0,239.50980392156862,20.28,35.68,51.76
2830.65,-140.49019607843138,248.0,-295.0,12.89,22.77,56.38
2830.7,-140.49019607843138,264.0,-279.0,33.65,3.59,59.32
2830.75,-156.49019607843138,-296.5098039215686,-295.0,36.13,-9.0,61.21
2830.8,-156.49019607843138,-214.50980392156862,-264.0,16.5,-17.19,57.12
2830.85,200.01960784313727,-18.50980392156863,-264.0,4.91,-28.95,46.62
2830.9,247.01960784313727,177.49019607843138,-295.0,15.76,-40.96,34.37
2830.95,-172.49019607843138,177.49019607843138,316.5098039215686,28.19,-46.14,18.34
2831.0,-220.49019607843138,-220.01960784313727,-6.490196078431373,4.7,-36.27,-22.46
2831.05,-315.4901960784314,57.98039215686274,147.50980392156862,-48.14,-19.12,-40.35
2831.1,-299.4901960784314,73.98039215686275,286.5098039215686,-18.63,-24.23,-10.95
2831.15,-77.49019607843137,155.98039215686273,-156.0,25.53,-8.13,-0.52
2831.2,224.50980392156862,40.98039215686274,-141.0,-43.17,20.91,-38.46
2831.25,-195.0,138.98039215686273,-218.0,-62.31,18.29,-56.41
2831.3,-4.0,-106.01960784313725,301.5098039215686,-0.01,1.45,-39.58
2831.35,186.0,-286.01960784313724,316.5098039215686,29.03,-5.99,-30.83
2831.4,-202.50980392156862,177.49019607843138,316.5098039215686,7.47,-0.36,-33.45
2831.45,-107.50980392156863,-149.50980392156862,224.50980392156862,-2.99,-3.19,-30.13
2831.5,-11.509803921568627,313.0,224.50980392156862,24.37,-15.65,-11.93
2831.55,-43.509803921568626,84.0,224.50980392156862,42.92,-19.36,5.67
2831.6,-91.50980392156863,52.0,178.50980392156862,44.71,-19.22,19.07
2831.65,-298.5098039215686,-13.0,209.50980392156862,53.25,-15.41,36.36
2831.7,233.0,-241.0,209.50980392156862,54.86,-6.94,61.74
2831.75,265.0,3.0,-36.490196078431374,53.81,-5.68,90.26
2831.8,-266.5098039215686,-143.0,129.01960784313727,70.19,10.55,100.1
2831.85,35.490196078431374,-192.0,-98.49019607843137,54.05,46.5,164.36
2831.9,-27.50980392156863,35.0,-190.49019607843138,38.79,59.66,228.34
2831.95,-27.50980392156863,-45.0,-21.49019607843137,51.46,66.55,270.06
2832.0,-202.50980392156862,3.0,-190.49019607843138,51.95,78.73,304.36
2832.05,-170.50980392156862,-160.0,-298.4901960784314,-2.36,70.58,-323.56
2832.1,-218.50980392156862,-307.0,-252.49019607843138,-38.16,32.25,-295.0
2832.15,-186.50980392156862,-78.0,-36.490196078431374,-69.77,2.85,-285.69
2832.2,-170.50980392156862,52.0,-67.49019607843137,-99.87,-4.38,-290.14
2832.25,297.0,-13.0,-313.4901960784314,-137.32,-7.04,-282.65
2832.3,-282.5098039215686,248.0,-129.49019607843138,-185.3,-8.86,-316.0
2832.35,35.490196078431374,-182.50980392156862,-252.49019607843138,-182.36,-31.51,314.3
2832.4,147.49019607843138,-94.0,221.01960784313727,-195.52,-33.68,268.97
2832.45,131.49019607843138,25.50980392156863,-190.49019607843138,-187.58,-35.01,212.73
2832.5,-11.509803921568627,156.50980392156862,313.01960784313724,-171.62,-43.55,171.18
2832.55,-154.50980392156862,129.01960784313727,209.50980392156862,-147.29,-65.91,133.56
2832.6,51.490196078431374,80.01960784313725,-279.0,-96.79,-72.53,95.51
2832.65,19.49019607843137,276.01960784313724,224.50980392156862,-92.83,-81.84,65.59
2832.7,-154.50980392156862,243.01960784313727,-156.0,-108.23,-29.2,37.59
2832.75,297.0,-301.4901960784314,-203.0,-39.67,-18.0,39.93
2832.8,-313.5098039215686,-154.49019607843138,-233.0,-76.38,-8.55,58.24
2832.85,-202.50980392156862,254.50980392156862,101.50980392156863,-28.68,10.97,71.08
2832.9,-250.50980392156862,319.5098039215686,86.50980392156863,-78.06,-5.33,72.41
2832.95,-282.5098039215686,-258.0,209.50980392156862,-55.94,-8.3,64.92
2833.0,-266.5098039215686,150.0,-67.49019607843137,-48.07,-3.51,59.18
2833.05,-107.50980392156863,183.0,-83.49019607843137,-66.41,10.1,45.64
2833.1,-59.509803921568626,-247.50980392156862,-160.49019607843138,-42.71,13.63,38.25
2833.15,-91.50980392156863,166.0,-113.49019607843137,-59.23,5.23,31.32
2833.2,-139.50980392156862,-231.50980392156862,-160.49019607843138,-57.34,14.37,32.62
2833.25,-107.50980392156863,-165.50980392156862,-160.49019607843138,19.33,5.16,50.29
2833.3,-107.50980392156863,62.490196078431374,-55.98039215686274,137.39,-2.74,66.99
2833.35,19.49019607843137,232.0,-267.4901960784314,228.42,-8.41,82.67
2833.4,313.0,68.0,116.50980392156863,174.42,0.26,90.93
2833.45,313.0,297.0,-113.49019607843137,292.86,15.63,69.82
2833.5,-218.50980392156862,117.0,-236.49019607843138,136.86,28.82,66.32
2833.55,-250.50980392156862,232.0,-313.4901960784314,16.6,22.87,63.84
2833.6,233.0,-29.0,-129.49019607843138,-149.04,31.31,58.87
2833.65,-266.5098039215686,84.0,-129.49019607843138,-194.44,27.77,27.12
2833.7,-107.50980392156863,-45.0,-175.49019607843138,-195.49,30.99,-14.1
2833.75,-43.509803921568626,-143.0,-52.490196078431374,-228.21,22.0,-23.83
2833.8,-75.50980392156863,3.0,-175.49019607843138,-188.56,19.2,-27.61
2833.85,-91.50980392156863,-290.0,252.01960784313727,-196.12,12.23,-27.96
2833.9,-27.50980392156863,-62.0,252.01960784313727,-202.45,12.23,-32.79
2833.95,83.49019607843137,19.0,-36.490196078431374,-142.99,18.08,-15.95
2834.0,-139.50980392156862,-160.0,236.01960784313727,4.7,10.55,-5.63
2834.05,242.49019607843138,-62.0,-129.49019607843138,-49.05,8.7,1.68
2834.1,210.49019607843138,254.50980392156862,9.509803921568627,5.58,-3.23,-14.97
2834.15,163.49019607843138,68.0,86.50980392156863,-43.83,-1.41,-23.13
2834.2,-11.509803921568627,-94.0,101.50980392156863,-29.06,-1.62,-12.28
2834.25,51.490196078431374,-192.0,270.5098039215686,-44.57,27.49,13.19
2834.3,-27.50980392156863,-62.0,-21.49019607843137,-32.21,2.61,-20.78
2834.35,-59.509803921568626,-160.0,-283.4901960784314,25.32,-7.85,-32.89
2834.4,67.49019607843137,3.0,-52.490196078431374,8.73,-0.64,-16.06
2834.45,-139.50980392156862,-127.0,-113.49019607843137,22.06,8.35,-13.61
2834.5,4.490196078431373,-176.0,9.509803921568627,10.13,12.2,-5.24
2834.55,4.490196078431373,-176.0,-313.4901960784314,24.86,23.19,-18.65
2834.6,4.490196078431373,-307.0,267.01960784313724,91.82,15.42,2.87
2834.65,226.49019607843138,-209.0,98.01960784313725,10.3,17.48,4.02
2834.7,4.490196078431373,-209.0,-113.49019607843137,44.78,2.4,13.12
2834.75,-250.50980392156862,-62.0,39.509803921568626,0.01,3.76,15.89
2834.8,313.0,270.5098039215686,-160.49019607843138,90.63,26.06,10.5
2834.85,-250.50980392156862,-94.0,298.01960784313724,59.16,13.63,28.45
2834.9,-43.509803921568626,270.5098039215686,-6.490196078431373,3.62,-3.4,48.61
2834.95,-91.50980392156863,205.50980392156862,-52.490196078431374,-26.58,27.39,62.79
2835.0,-154.50980392156862,156.50980392156862,-160.49019607843138,71.03,17.31,74.44
2835.05,249.0,-241.0,144.01960784313727,115.09,23.61,70.59
2835.1,281.0,-290.0,-295.0,88.14,17.87,67.44
2835.15,297.0,-89.49019607843137,55.509803921568626,256.77,22.52,51.27
2835.2,281.0,319.5098039215686,-267.4901960784314,91.05,-10.12,44.59
2835.25,-218.50980392156862,156.50980392156862,239.50980392156862,-174.42,-12.29,36.26
2835.3,-298.5098039215686,-23.49019607843137,-64.0,-265.17,-6.83,36.47
2835.35,170.0,-62.0,43.0,-171.23,-5.57,32.02
2835.4,74.0,291.4901960784314,-49.0,155.27,17.9,8.68
2835.45,-218.50980392156862,-12.529411764705882,147.50980392156862,188.1,2.29,1.57
2835.5,-298.5098039215686,171.98039215686273,9.509803921568627,-0.43,-4.52,-20.15
2835.55,27.0,209.49019607843138,-252.49019607843138,-55.1,-1.16,-20.5
2835.6,272.5098039215686,307.4901960784314,-9.980392156862745,-44.43,-14.64,-29.08
2835.65,113.50980392156863,95.49019607843137,-86.98039215686275,-40.09,-32.63,-30.34
2835.7,34.509803921568626,-198.50980392156862,5.019607843137255,-67.35,-24.02,-36.32
2835.75,34.509803921568626,166.0,144.01960784313727,-53.98,-4.49,-48.26
2835.8,2.5098039215686274,150.0,-267.4901960784314,-9.32,-10.79,-39.23
2835.85,65.50980392156863,264.0,-160.49019607843138,7.99,-13.38,-38.21
2835.9,65.50980392156863,264.0,9.509803921568627,7.01,-17.33,-25.75
2835.95,-45.490196078431374,297.0,-52.490196078431374,-42.68,8.0,-46.75
2836.0,311.01960784313724,248.0,132.50980392156862,-101.69,1.38,-65.48
2836.05,-70.98039215686275,-263.5098039215686,55.509803921568626,-15.9,5.51,-110.38
2836.1,-204.49019607843138,-84.50980392156863,-36.490196078431374,-2.29,0.79,-151.51
2836.15,-299.4901960784314,-231.50980392156862,147.50980392156862,-119.22,8.7,-197.39
2836.2,247.01960784313727,199.0,239.50980392156862,-95.18,6.0,-242.44
2836.25,-267.4901960784314,-198.50980392156862,132.50980392156862,9.39,-12.26,-268.62
2836.3,-13.490196078431373,-51.509803921568626,101.50980392156863,46.46,-18.45,311.18
2836.35,2.5098039215686274,-165.50980392156862,101.50980392156863,13.63,-19.47,-303.34
2836.4,2.5098039215686274,313.0,55.509803921568626,29.8,-14.29,-159.17
2836.45,-29.49019607843137,-280.5098039215686,-67.49019607843137,20.17,-1.09,-50.95
2836.5,-61.490196078431374,264.0,-67.49019607843137,12.47,7.68,3.95
2836.55,-140.49019607843138,264.0,-6.490196078431373,17.06,7.05,61.25
2836.6,-188.49019607843138,248.0,-67.49019607843137,22.87,-4.24,79.48
2836.65,-140.49019607843138,199.0,-21.49019607843137,44.78,-31.54,70.28
2836.7,-140.49019607843138,215.0,-6.490196078431373,61.96,-24.47,33.28
2836.75,200.01960784313727,297.0,-83.49019607843137,112.05,-15.55,-8.57
2836.8,-283.4901960784314,-263.5098039215686,-52.490196078431374,115.69,-3.12,-43.53
2836.85,-236.49019607843138,248.0,239.50980392156862,0.26,28.26,-81.44
2836.9,279.01960784313724,101.0,239.50980392156862,-13.91,23.71,-132.01
2836.95,-315.4901960784314,248.0,239.50980392156862,28.82,6.11,-215.21
2837.0,-220.49019607843138,-296.5098039215686,132.50980392156862,-101.69,1.38,-234.84
2837.05,-252.49019607843138,313.0,55.509803921568626,-15.9,5.51,-167.57
2837.1,-156.49019607843138,232.0,-36.490196078431374,-2.29,0.79,-123.12
2837.15,-156.49019607843138,232.0,147.50980392156862,-119.22,8.7,-107.02
2837.2,-124.49019607843137,215.0,239.50980392156862,-95.18,6.0,-89.84
2837.25,-204.49019607843138,232.0,132.50980392156862,9.39,-12.26,-58.2
2837.3,-188.49019607843138,232.0,101.50980392156863,46.46,-18.45,-31.11
2837.35,-267.4901960784314,183.0,101.50980392156863,13.63,-19.47,-6.68
2837.4,263.01960784313724,133.0,55.509803921568626,29.8,-14.29,24.29
2837.45,104.01960784313725,183.0,-67.49019607843137,20.17,-1.09,43.54
2837.5,2.5098039215686274,-312.5098039215686,-67.49019607843137,12.47,7.68,56.17
2837.55,-61.490196078431374,150.0,-6.490196078431373,17.06,7.05,76.89
2837.6,-252.49019607843138,84.0,-67.49019607843137,22.87,-4.24,83.79
2837.65,-77.49019607843137,313.0,-21.49019607843137,44.78,-31.54,55.4
2837.7,65.50980392156863,297.0,-6.490196078431373,61.96,-24.47,23.48
2837.75,-77.49019607843137,215.0,-83.49019607843137,112.05,-15.55,48.51
2837.8,-140.49019607843138,297.0,-52.490196078431374,115.69,-3.12,58.13
2837.85,-140.49019607843138,-280.5098039215686,239.50980392156862,0.26,28.26,43.05
2837.9,-188.49019607843138,281.0,239.50980392156862,-13.91,23.71,48.72
2837.95,-204.49019607843138,133.0,239.50980392156862,28.82,6.11,58.1
2838.0,-108.49019607843137,183.0,301.5098039215686,42.5,-4.21,61.07
2838.05,-29.49019607843137,232.0,-310.0,31.62,-15.48,49.91
2838.1,-156.49019607843138,232.0,-295.0,17.09,-21.36,26.53
2838.15,-22.980392156862745,-312.5098039215686,301.5098039215686,17.16,-25.98,8.05
2838.2,-315.4901960784314,-182.50980392156862,286.5098039215686,21.29,-25.84,-0.8
2838.25,-283.4901960784314,-312.5098039215686,193.50980392156862,23.92,-24.54,-4.89
2838.3,-252.49019607843138,264.0,101.50980392156863,10.13,-12.85,-20.05
2838.35,-140.49019607843138,-263.5098039215686,70.50980392156863,-28.22,1.38,-58.02
2838.4,-283.4901960784314,-263.5098039215686,9.509803921568627,-61.3,15.73,-38.77
2838.45,216.01960784313727,-280.5098039215686,24.50980392156863,9.29,-16.95,7.38
2838.5,231.01960784313727,-214.50980392156862,-6.490196078431373,2.29,-4.94,-12.03
2838.55,-283.4901960784314,-198.50980392156862,9.509803921568627,-60.04,24.59,-33.52
2838.6,-220.49019607843138,-231.50980392156862,55.509803921568626,-14.43,-2.14,-8.08
2838.65,-188.49019607843138,-263.5098039215686,55.509803921568626,19.79,-26.36,1.71
2838.7,-299.4901960784314,-247.50980392156862,86.50980392156863,18.39,-31.65,-10.07
2838.75,200.01960784313727,-296.5098039215686,86.50980392156863,45.65,-44.84,-18.02
2838.8,88.01960784313725,264.0,86.50980392156863,96.61,-50.69,-1.92
2838.85,88.01960784313725,313.0,-6.490196078431373,98.08,-30.67,20.19
2838.9,-283.4901960784314,-247.50980392156862,-98.49019607843137,41.91,-3.61,30.9
2838.95,295.01960784313724,117.0,39.509803921568626,16.11,2.96,41.68
2839.0,279.01960784313724,-143.0,39.509803921568626,7.64,0.33,47.88
2839.05,-172.49019607843138,19.0,70.50980392156863,18.67,-15.3,7.84
2839.1,34.509803921568626,117.0,178.50980392156862,-16.43,21.96,12.35
2839.15,2.5098039215686274,84.0,-21.49019607843137,52.65,8.66,60.06
2839.2,-77.49019607843137,150.0,147.50980392156862,66.69,-2.77,76.3
2839.25,-77.49019607843137,248.0,270.5098039215686,43.55,-5.29,60.83
2839.3,-61.490196078431374,-296.5098039215686,286.5098039215686,77.29,-7.57,34.89
2839.35,-204.49019607843138,-231.50980392156862,-310.0,81.25,5.44,8.22
2839.4,-252.49019607843138,-214.50980392156862,-218.0,51.01,11.36,10.32
2839.45,136.01960784313727,-214.50980392156862,-233.0,48.17,2.99,43.5
2839.5,311.01960784313724,-35.509803921568626,-233.0,74.74,-23.21,81.02
2839.55,-220.49019607843138,144.49019607843138,-203.0,88.21,-42.04,75.67
2839.6,-204.49019607843138,242.49019607843138,-156.0,112.71,-50.37,59.01
2839.65,-299.4901960784314,-89.01960784313725,-187.0,101.02,-37.46,58.94
2839.7,152.01960784313727,285.98039215686276,-233.0,55.84,-23.28,68.98
2839.75,88.01960784313725,204.98039215686273,-233.0,4.25,-30.39,78.89
2839.8,247.01960784313727,89.98039215686275,-233.0,44.18,-54.12,112.1
2839.85,-220.49019607843138,-171.01960784313727,209.50980392156862,136.37,-58.28,149.62
2839.9,145.50980392156862,-247.50980392156862,70.50980392156863,122.72,-32.84,136.81
2839.95,240.50980392156862,46.490196078431374,24.50980392156863,17.37,-13.69,93.13
2840.0,-243.0,-165.50980392156862,163.50980392156862,6.35,-20.76,53.86
2840.05,-20.0,248.0,-221.49019607843138,53.53,-36.79,8.92
2840.1,170.0,199.0,-21.49019607843137,48.8,-41.66,-39.51
2840.15,154.0,84.0,132.50980392156862,46.74,-46.28,-73.21
2840.2,-131.0,52.0,-6.490196078431373,70.75,-58.67,-85.43
2840.25,-116.0,68.0,-252.49019607843138,108.13,-64.2,-77.31
2840.3,170.0,313.0,-236.49019607843138,115.27,-42.25,-39.44
2840.35,58.0,52.0,-160.49019607843138,80.23,-20.94,10.29
2840.4,170.0,144.49019607843138,-236.49019607843138,18.42,0.33,55.58
2840.45,-84.0,-35.509803921568626,-298.4901960784314,-7.85,-15.76,120.05
2840.5,-195.0,-100.50980392156863,236.01960784313727,65.64,-36.23,180.32
2840.55,288.5098039215686,117.0,-283.4901960784314,83.77,-55.38,215.67
2840.6,288.5098039215686,281.0,-252.49019607843138,131.65,-93.74,256.86
2840.65,288.5098039215686,-280.5098039215686,-144.49019607843138,154.99,-86.67,308.66
2840.7,224.50980392156862,156.50980392156862,-203.0,105.5,-63.32,-305.78
2840.75,295.01960784313724,-127.0,55.509803921568626,99.55,-64.41,-285.52
2840.8,25.019607843137255,52.0,132.50980392156862,153.87,-56.15,324.34
2840.85,-245.98039215686273,-231.50980392156862,-37.490196078431374,85.73,-56.22,259.14
2840.9,-86.98039215686275,79.49019607843137,-37.490196078431374,94.3,-46.31,217.52
2840.95,-260.98039215686276,-35.509803921568626,-36.490196078431374,40.72,-18.8,168.14
2841.0,-243.0,-165.50980392156862,163.50980392156862,68.61,-2.98,125.86
2841.05,-20.0,248.0,-221.49019607843138,81.77,-20.73,42.63
2841.1,170.0,199.0,-21.49019607843137,49.99,-54.71,-9.65
2841.15,154.0,84.0,132.50980392156862,-35.36,-66.72,-9.51
2841.2,-131.0,52.0,-6.490196078431373,-103.82,-51.21,-11.3
2841.25,-116.0,68.0,-252.49019607843138,-102.53,-50.34,-48.19
2841.3,170.0,313.0,-236.49019607843138,-144.74,-16.28,-71.46
2841.35,58.0,52.0,-160.49019607843138,53.6,-57.51,-88.89
2841.4,170.0,144.49019607843138,-236.49019607843138,44.08,-56.67,-44.41
2841.45,-84.0,-35.509803921568626,-298.4901960784314,29.83,-33.47,-63.06
2841.5,-195.0,-100.50980392156863,236.01960784313727,47.23,-25.63,-71.39
2841.55,288.5098039215686,117.0,-283.4901960784314,70.61,-75.43,-89.49
2841.6,288.5098039215686,281.0,-252.49019607843138,60.81,-145.5,-142.41
2841.65,288.5098039215686,-280.5098039215686,-144.49019607843138,-141.73,-154.32,-210.66
2841.7,224.50980392156862,156.50980392156862,-203.0,-195.63,-138.26,-268.62
2841.75,295.01960784313724,-127.0,55.509803921568626,-296.78,-98.67,-295.74
2841.8,25.019607843137255,52.0,132.50980392156862,-278.05,-12.71,-277.26
2841.85,-245.98039215686273,-231.50980392156862,-37.490196078431374,-125.59,3.06,-223.22
2841.9,-86.98039215686275,79.49019607843137,-37.490196078431374,-59.58,9.12,-155.29
2841.95,-260.98039215686276,-35.509803921568626,-36.490196078431374,-94.02,37.99,-44.48
2842.0,-45.490196078431374,-35.509803921568626,55.509803921568626,-35.01,18.67,40.53
2842.05,-61.490196078431374,-149.50980392156862,301.5098039215686,9.74,21.68,57.01
2842.1,-77.49019607843137,-116.50980392156863,-310.0,6.03,31.27,62.68
2842.15,-77.49019607843137,-100.50980392156863,301.5098039215686,2.04,12.58,84.24
2842.2,-93.49019607843137,-182.50980392156862,-249.0,4.95,-8.37,110.84
2842.25,-93.49019607843137,-231.50980392156862,-203.0,29.03,-23.91,131.07
2842.3,-124.49019607843137,-198.50980392156862,-233.0,51.81,-32.14,137.02
2842.35,184.01960784313727,-280.5098039215686,-264.0,31.65,-29.13,123.93
2842.4,-283.4901960784314,232.0,316.5098039215686,21.4,-31.82,95.16
2842.45,2.5098039215686274,183.0,301.5098039215686,13.84,-32.0,54.98
2842.5,168.01960784313727,150.0,178.50980392156862,36.52,-25.56,9.8
2842.55,72.01960784313725,183.0,86.50980392156863,46.81,-19.36,-33.73
2842.6,9.019607843137255,101.0,-36.490196078431374,45.76,-10.19,-75.1
2842.65,-133.98039215686273,101.0,-83.49019607843137,3.13,13.81,-75.38
2842.7,-117.98039215686275,52.0,-160.49019607843138,-6.28,27.95,-60.47
2842.75,-315.4901960784314,101.0,-98.49019607843137,-48.49,58.64,-72.48
2842.8,-93.49019607843137,52.0,132.50980392156862,-126.05,80.52,-83.08
2842.85,224.50980392156862,101.0,193.50980392156862,-150.06,77.72,-70.94
2842.9,-116.0,248.0,301.5098039215686,-96.4,52.83,-54.38
2842.95,106.0,-312.5098039215686,-295.0,-37.11,18.29,-56.48
2843.0,-250.50980392156862,-312.5098039215686,-310.0,-12.72,-5.57,-66.18
2843.05,-202.50980392156862,-312.5098039215686,301.5098039215686,4.28,-25.66,-63.03
2843.1,-250.50980392156862,281.0,239.50980392156862,37.08,-39.24,-47.35
2843.15,-43.509803921568626,-312.5098039215686,101.50980392156863,35.85,-38.96,-37.41
2843.2,51.490196078431374,248.0,-36.490196078431374,5.02,-32.49,-37.3
2843.25,99.49019607843137,183.0,-6.490196078431373,-12.75,-34.52,-47.7
2843.3,35.490196078431374,199.0,-37.490196078431374,-5.72,-25.73,-68.59
2843.35,51.490196078431374,313.0,-98.49019607843137,0.89,3.13,-23.06
2843.4,131.49019607843138,-100.50980392156863,-129.49019607843138,138.3,-12.5,59.01
2843.45,210.49019607843138,-84.50980392156863,86.50980392156863,88.11,40.58,103.77
2843.5,226.49019607843138,313.0,86.50980392156863,63.78,73.34,185.71
2843.55,258.4901960784314,-35.509803921568626,116.50980392156863,58.5,86.61,265.05
2843.6,-273.01960784313724,-100.50980392156863,270.5098039215686,167.91,126.47,315.31
2843.65,-209.01960784313727,258.4901960784314,101.50980392156863,74.18,165.85,322.42
2843.7,83.49019607843137,177.49019607843138,-67.49019607843137,-37.25,172.32,-324.26
2843.75,19.49019607843137,-100.50980392156863,-52.490196078431374,-24.79,182.61,-325.28
2843.8,51.490196078431374,46.490196078431374,-190.49019607843138,-65.67,180.55,307.82
2843.85,83.49019607843137,-35.509803921568626,-98.49019607843137,-61.61,150.03,262.67
2843.9,67.49019607843137,313.0,9.509803921568627,9.64,90.28,155.96
2843.95,83.49019607843137,84.0,86.50980392156863,12.47,32.22,76.61
2844.0,194.49019607843138,-78.0,-6.490196078431373,26.19,-16.0,32.06
2844.05,-305.01960784313724,-127.0,116.50980392156863,46.14,-3.54,-4.4
2844.1,-18.019607843137255,-45.0,9.509803921568627,14.4,9.68,-28.8
2844.15,108.98039215686275,232.0,86.50980392156863,13.73,9.71,-14.94
2844.2,12.980392156862745,-296.5098039215686,9.509803921568627,54.12,9.89,-9.62
2844.25,-161.01960784313727,101.0,-21.49019607843137,9.57,7.37,-12.49
2844.3,290.4901960784314,-29.0,147.50980392156862,15.66,3.55,-13.75
2844.35,-241.01960784313727,84.0,9.509803921568627,6.73,4.57,-5.1
2844.4,-59.509803921568626,68.0,55.509803921568626,12.3,10.06,6.89
2844.45,313.0,101.0,55.509803921568626,-3.37,20.74,26.77
2844.5,122.0,264.0,70.50980392156863,-17.58,12.51,57.75
2844.55,-68.0,166.0,70.50980392156863,-8.66,14.12,54.04
2844.6,27.0,52.0,70.50980392156863,-29.97,9.64,41.37
2844.65,27.0,183.0,-6.490196078431373,-93.53,19.34,57.47
2844.7,154.0,-94.0,239.50980392156862,-15.62,-7.74,14.45
2844.75,154.0,35.0,-279.0,-65.15,-25.87,-41.99
2844.8,201.0,101.0,-249.0,-47.3,-32.73,-56.9
2844.85,249.0,117.0,301.5098039215686,0.85,-35.6,-69.29
2844.9,-218.50980392156862,117.0,163.50980392156862,70.75,-35.99,-67.09
2844.95,-123.50980392156863,264.0,-6.490196078431373,140.99,-18.52,-63.62
2845.0,19.49019607843137,-143.0,-190.49019607843138,45.13,22.49,-38.14
2845.05,-43.509803921568626,-94.0,206.01960784313727,-85.2,81.15,29.4
2845.1,-59.509803921568626,221.50980392156862,21.019607843137255,-106.76,109.32,106.19
2845.15,-27.50980392156863,-160.0,144.01960784313727,-59.02,99.59,175.94
2845.2,-139.50980392156862,-78.0,-52.490196078431374,16.78,60.81,212.97
2845.25,-11.509803921568627,-143.0,-233.0,-11.63,-10.96,205.38
2845.3,99.49019607843137,-111.0,243.0,-21.57,-105.88,195.72
2845.35,67.49019607843137,150.0,258.0,7.71,-150.44,131.77
2845.4,35.490196078431374,19.0,227.0,10.48,-165.98,70.24
2845.45,-27.50980392156863,52.0,43.0,-37.11,-150.4,-2.65
2845.5,-43.509803921568626,-45.0,-249.0,5.19,-73.3,-22.5
2845.55,-11.509803921568627,68.0,-83.49019607843137,-106.31,-37.95,-42.27
2845.6,35.490196078431374,35.0,-83.49019607843137,-138.44,-28.22,-60.54
2845.65,4.490196078431373,215.0,70.50980392156863,-123.28,-23.42,-64.64
2845.7,-11.509803921568627,117.0,55.509803921568626,-85.8,-10.68,-48.78
2845.75,-170.50980392156862,-45.0,-129.49019607843138,-34.45,19.44,-18.37
2845.8,-91.50980392156863,84.0,267.01960784313724,-9.81,36.35,8.92
2845.85,-91.50980392156863,-127.0,298.01960784313724,-5.61,33.06,28.24
2845.9,-313.5098039215686,-209.0,-283.4901960784314,6.8,25.04,41.82
2845.95,265.0,303.5098039215686,-267.4901960784314,-21.01,5.02,66.46
2846.0,170.0,-29.0,-98.49019607843137,-34.17,14.3,77.8
2846.05,201.0,-111.0,-190.49019607843138,-58.15,19.55,56.1
2846.1,11.0,-149.50980392156862,298.01960784313724,-24.65,17.87,40.11
2846.15,122.0,-116.50980392156863,-236.49019607843138,-39.67,16.68,36.22
2846.2,170.0,232.0,70.50980392156863,-48.1,23.64,22.64
2846.25,-243.0,-231.50980392156862,-36.490196078431374,-58.25,18.04,11.62
2846.3,256.5098039215686,258.4901960784314,-113.49019607843137,-36.13,0.3,17.5
2846.35,320.5098039215686,-51.509803921568626,-21.49019607843137,-31.06,-6.45,11.62
2846.4,65.50980392156863,-312.5098039215686,-52.490196078431374,-28.89,1.91,-3.91
2846.45,-156.49019607843138,264.0,-129.49019607843138,-27.77,-6.31,-11.51
2846.5,311.01960784313724,-165.50980392156862,-36.490196078431374,-26.02,-6.45,-17.25
2846.55,-236.49019607843138,-312.5098039215686,-6.490196078431373,26.44,-6.06,-25.37
2846.6,-172.49019607843138,264.0,-175.49019607843138,16.22,-6.97,-27.85
2846.65,-156.49019607843138,313.0,-98.49019607843137,89.4,3.9,-43.74
2846.7,136.01960784313727,30.49019607843137,298.01960784313724,92.83,14.09,-67.33
2846.75,-236.49019607843138,-100.50980392156863,-267.4901960784314,131.54,16.36,-77.1
2846.8,-188.49019607843138,-263.5098039215686,313.01960784313724,127.31,0.16,-135.97
2846.85,231.01960784313727,297.0,116.50980392156863,214.46,-16.21,-204.92
2846.9,136.01960784313727,-296.5098039215686,-83.49019607843137,134.45,-53.38,-232.53
2846.95,247.01960784313727,-263.5098039215686,101.50980392156863,-6.24,-70.92,-237.33
2847.0,295.01960784313724,-247.50980392156862,301.5098039215686,-68.19,-89.61,-246.15
2847.05,-315.4901960784314,-247.50980392156862,132.50980392156862,6.45,-87.82,-247.51
2847.1,295.01960784313724,-247.50980392156862,-267.4901960784314,54.96,-94.96,-230.22
2847.15,-315.4901960784314,-231.50980392156862,24.50980392156863,-14.61,-129.82,-219.16
2847.2,311.01960784313724,-231.50980392156862,-236.49019607843138,-117.02,-144.49,-226.23
2847.25,247.01960784313727,-231.50980392156862,-298.4901960784314,-63.54,-153.2,-196.17
2847.3,200.01960784313727,-214.50980392156862,175.01960784313727,-10.3,-183.51,-144.86
2847.35,104.01960784313725,-296.5098039215686,175.01960784313727,-1.24,-183.83,-116.19
2847.4,168.01960784313727,281.0,113.01960784313725,35.26,-133.81,-116.12
2847.45,200.01960784313727,215.0,175.01960784313727,90.31,-77.04,-89.45
2847.5,216.01960784313727,199.0,67.01960784313725,65.99,-38.26,-47.35
2847.55,263.01960784313724,166.0,-313.4901960784314,23.18,-11.91,-14.24
2847.6,263.01960784313724,101.0,-252.49019607843138,-4.6,0.37,10.57
2847.65,-140.49019607843138,117.0,-160.49019607843138,89.51,19.93,36.26
2847.7,-45.490196078431374,117.0,-206.49019607843138,82.61,43.91,107.06
2847.75,-140.49019607843138,101.0,-36.490196078431374,96.23,41.74,152.42
2847.8,-220.49019607843138,183.0,255.50980392156862,29.45,52.31,156.73
2847.85,-236.49019607843138,281.0,-310.0,-16.78,45.31,153.3
2847.9,-156.49019607843138,264.0,301.5098039215686,-1.1,6.88,147.14
2847.95,-124.49019607843137,166.0,-187.0,21.96,-25.52,132.82
2848.0,-140.49019607843138,183.0,70.50980392156863,59.23,-63.74,112.56
2848.05,-108.49019607843137,264.0,70.50980392156863,98.26,-92.2,80.43
2848.1,-108.49019607843137,297.0,55.509803921568626,128.01,-112.74,58.38
2848.15,-124.49019607843137,281.0,39.509803921568626,149.53,-124.85,58.73
2848.2,-108.49019607843137,248.0,55.509803921568626,159.79,-122.44,72.48
2848.25,-140.49019607843138,281.0,9.509803921568627,155.62,-109.98,91.17
2848.3,-156.49019607843138,264.0,24.50980392156863,123.53,-83.38,113.54
2848.35,-188.49019607843138,264.0,9.509803921568627,92.2,-63.39,124.25
2848.4,311.01960784313724,297.0,9.509803921568627,75.68,-43.23,116.76
2848.45,279.01960784313724,-247.50980392156862,-36.490196078431374,59.06,-24.44,98.31
2848.5,-124.49019607843137,-247.50980392156862,70.50980392156863,46.07,-16.49,61.56
2848.55,-267.4901960784314,264.0,101.50980392156863,22.27,-3.96,31.67
2848.6,200.01960784313727,199.0,162.50980392156862,25.35,-5.75,13.54
2848.65,200.01960784313727,232.0,239.50980392156862,31.41,-1.9,-22.25
2848.7,295.01960784313724,297.0,316.5098039215686,-5.26,5.55,-61.14
2848.75,-267.4901960784314,313.0,301.5098039215686,-12.54,-3.89,-76.64
2848.8,-188.49019607843138,297.0,316.5098039215686,17.2,-14.25,-61.73
2848.85,-172.49019607843138,215.0,-264.0,26.23,-14.46,-43.92
2848.9,-108.49019607843137,199.0,-310.0,-13.35,-4.45,-40.14
2848.95,-140.49019607843138,199.0,270.5098039215686,-29.8,-2.77,-40.28
2849.0,-156.49019607843138,215.0,224.50980392156862,-13.45,-9.56,-38.14
2849.05,-188.49019607843138,199.0,116.50980392156863,8.03,-15.69,-34.47
2849.1,-267.4901960784314,183.0,55.509803921568626,13.94,-14.67,-26.35
2849.15,200.01960784313727,133.0,24.50980392156863,7.68,-11.21,-10.04
2849.2,-315.4901960784314,166.0,9.509803921568627,5.47,-8.58,6.05
2849.25,2.5098039215686274,264.0,-21.49019607843137,12.02,-9.39,15.22
2849.3,-172.49019607843138,199.0,70.50980392156863,12.33,-17.86,9.38
2849.35,295.01960784313724,117.0,116.50980392156863,32.39,-24.02,-3.0
2849.4,-220.49019607843138,248.0,86.50980392156863,55.87,-10.16,31.5
2849.45,-77.49019607843137,281.0,101.50980392156863,87.02,-5.05,74.83
2849.5,-93.49019607843137,199.0,116.50980392156863,71.73,18.04,84.24
2849.55,-93.49019607843137,150.0,116.50980392156863,20.1,43.59,75.63
2849.6,-45.490196078431374,215.0,55.509803921568626,-8.17,48.25,72.62
2849.65,-61.490196078431374,232.0,-21.49019607843137,-11.04,32.95,85.19
2849.7,-77.49019607843137,183.0,-36.490196078431374,20.03,8.14,92.64
2849.75,-140.49019607843138,183.0,-83.49019607843137,50.03,-8.13,80.43
2849.8,-124.49019607843137,232.0,-52.490196078431374,35.82,-15.69,46.97
2849.85,-283.4901960784314,248.0,9.509803921568627,25.11,-26.96,14.59
2849.9,-22.980392156862745,-214.50980392156862,-190.49019607843138,25.11,-32.63,-6.12
2849.95,-124.49019607843137,-84.50980392156863,-36.490196078431374,34.77,-36.65,-21.73
2850.0,-156.49019607843138,281.0,132.50980392156862,35.12,-35.99,-38.95
2850.05,152.01960784313727,150.0,132.50980392156862,26.33,-29.65,-60.61
2850.1,152.01960784313727,199.0,193.50980392156862,-29.41,-9.67,-80.39
2850.15,295.01960784313724,264.0,316.5098039215686,-68.79,3.73,-54.49
2850.2,-315.4901960784314,297.0,-264.0,-25.49,-0.88,-27.4
2850.25,-220.49019607843138,313.0,-264.0,-24.55,15.66,-34.71
2850.3,-156.49019607843138,248.0,-233.0,-94.97,41.18,-33.63
2850.35,-172.49019607843138,183.0,-264.0,-76.35,25.46,-2.44
2850.4,-77.49019607843137,150.0,286.5098039215686,-30.18,11.29,3.22
2850.45,-93.49019607843137,166.0,193.50980392156862,-26.19,8.8,-13.99
2850.5,-188.49019607843138,183.0,55.509803921568626,-39.39,2.61,-30.86
2850.55,295.01960784313724,117.0,24.50980392156863,-17.65,-14.25,-37.58
2850.6,-22.980392156862745,84.0,-67.49019607843137,17.2,-24.79,-43.67
2850.65,216.01960784313727,183.0,-160.49019607843138,13.84,-23.42,-50.85
2850.7,-124.49019607843137,248.0,-221.49019607843138,7.08,-19.22,-46.79
2850.75,-252.49019607843138,117.0,24.50980392156863,-0.19,-16.07,-35.27
2850.8,-299.4901960784314,150.0,70.50980392156863,6.17,-30.42,-50.36
2850.85,-156.49019607843138,281.0,9.509803921568627,17.2,4.39,-22.71
2850.9,-77.49019607843137,264.0,70.50980392156863,99.03,6.07,58.1
2850.95,-77.49019607843137,133.0,193.50980392156862,96.47,28.58,102.44
2851.0,-61.490196078431374,101.0,193.50980392156862,-49.61,76.74,101.88
2851.05,-61.490196078431374,166.0,132.50980392156862,-7.92,89.86,103.39
2851.1,-93.49019607843137,183.0,86.50980392156863,13.07,68.69,118.82
2851.15,-61.490196078431374,150.0,24.50980392156863,-0.92,38.48,122.88
2851.2,-45.490196078431374,84.0,-6.490196078431373,-12.75,6.18,108.15
2851.25,-45.490196078431374,117.0,-36.490196078431374,-7.64,-21.04,69.09
2851.3,-13.490196078431373,199.0,-21.49019607843137,3.72,-33.54,29.71
2851.35,-93.49019607843137,232.0,-21.49019607843137,0.57,-48.48,-12.31
2851.4,168.01960784313727,297.0,-113.49019607843137,40.44,-57.97,-44.51
2851.45,-283.4901960784314,-214.50980392156862,-129.49019607843138,52.76,-55.13,-74.75
2851.5,-124.49019607843137,-312.5098039215686,-6.490196078431373,-2.15,-54.78,-112.48
2851.55,-252.49019607843138,133.0,39.509803921568626,-22.9,-36.44,-133.83
2851.6,-299.4901960784314,232.0,132.50980392156862,-10.09,-19.75,-105.73
2851.65,-315.4901960784314,297.0,209.50980392156862,6.84,-3.72,-69.71
2851.7,311.01960784313724,-312.5098039215686,316.5098039215686,43.41,25.22,-59.04
2851.75,-236.49019607843138,313.0,-310.0,37.95,46.01,-39.65
2851.8,-236.49019607843138,248.0,-295.0,33.47,41.25,-6.78
2851.85,-220.49019607843138,248.0,-295.0,57.38,41.53,10.92
2851.9,-236.49019607843138,-247.50980392156862,286.5098039215686,45.13,43.35,12.77
2851.95,-172.49019607843138,-296.5098039215686,255.50980392156862,92.27,34.88,10.43
2852.0,-124.49019607843137,-116.50980392156863,224.50980392156862,86.57,13.74,5.49
2852.05,-124.49019607843137,-214.50980392156862,193.50980392156862,76.7,-4.21,-4.75
2852.1,-204.49019607843138,-182.50980392156862,193.50980392156862,63.47,-19.08,-12.35
2852.15,-267.4901960784314,-198.50980392156862,270.5098039215686,60.81,-25.87,-22.25
2852.2,-267.4901960784314,-247.50980392156862,316.5098039215686,71.1,-24.89,-32.75
2852.25,-315.4901960784314,-214.50980392156862,301.5098039215686,63.47,-29.51,-44.02
2852.3,-299.4901960784314,-280.5098039215686,-295.0,58.15,-45.05,-63.73
2852.35,-252.49019607843138,313.0,-310.0,51.46,-26.01,-55.71
2852.4,-267.4901960784314,281.0,270.5098039215686,28.29,-18.45,6.82
2852.45,311.01960784313724,248.0,286.5098039215686,5.05,-9.81,63.24
2852.5,168.01960784313727,-296.5098039215686,193.50980392156862,69.03,13.98,76.26
2852.55,-108.49019607843137,-263.5098039215686,132.50980392156862,-32.32,23.47,60.72
2852.6,-140.49019607843138,3.0,101.50980392156863,37.6,19.79,47.67
2852.65,-188.49019607843138,232.0,193.50980392156862,70.85,7.16,50.4
2852.7,311.01960784313724,150.0,86.50980392156863,42.61,-14.78,62.75
2852.75,-267.4901960784314,52.0,39.509803921568626,69.07,-30.0,57.15
2852.8,-204.49019607843138,183.0,70.50980392156863,64.73,-34.2,34.02
2852.85,-108.49019607843137,68.0,86.50980392156863,64.45,-43.23,25.79
2852.9,-124.49019607843137,101.0,86.50980392156863,58.95,-50.83,27.82
2852.95,-220.49019607843138,232.0,24.50980392156863,75.16,-58.84,33.6
2853.0,-124.49019607843137,199.0,224.50980392156862,86.57,-48.76,36.71
2853.05,-204.49019607843138,215.0,193.50980392156862,76.7,-31.86,40.6
2853.1,-188.49019607843138,199.0,193.50980392156862,63.47,-19.89,36.78
2853.15,-156.49019607843138,199.0,270.5098039215686,60.81,-16.98,30.1
2853.2,-220.49019607843138,199.0,316.5098039215686,71.1,-19.47,27.82
2853.25,-38.98039215686274,297.0,301.5098039215686,63.47,-19.01,26.0
2853.3,-124.49019607843137,-198.50980392156862,-295.0,58.15,-16.56,15.96
2853.35,-29.49019607843137,313.0,-310.0,51.46,-7.39,3.67
2853.4,311.01960784313724,133.0,270.5098039215686,28.29,-3.37,-11.93
2853.45,247.01960784313727,199.0,286.5098039215686,5.05,-4.94,6.65
2853.5,311.01960784313724,-231.50980392156862,193.50980392156862,69.03,-28.01,32.51
2853.55,-283.4901960784314,-149.50980392156862,132.50980392156862,-32.32,14.16,9.52
2853.6,311.01960784313724,-165.50980392156862,101.50980392156863,37.6,0.09,-0.2
2853.65,311.01960784313724,-165.50980392156862,193.50980392156862,70.85,-17.4,8.26
2853.7,295.01960784313724,-165.50980392156862,86.50980392156863,42.61,-15.58,4.06
2853.75,295.01960784313724,-198.50980392156862,39.509803921568626,69.07,-10.23,-4.02
2853.8,247.01960784313727,-263.5098039215686,70.50980392156863,64.73,-17.47,-3.91
2853.85,247.01960784313727,-296.5098039215686,86.50980392156863,64.45,-24.44,0.0
2853.9,311.01960784313724,248.0,86.50980392156863,58.95,-16.32,1.01
2853.95,311.01960784313724,183.0,24.50980392156863,75.16,-12.12,11.44
2854.0,231.01960784313727,133.0,24.50980392156863,66.09,-4.14,25.41
