rel_time,acc_x,acc_y,acc_z,gyro_x,gyro_y,gyro_z
1.0,-4.0,172.50980392156862,-236.49019607843138,13.47,-3.35,8.28
1.05,97.50980392156863,199.0,-252.49019607843138,19.24,12.21,15.63
1.1,-20.0,-23.49019607843137,-283.4901960784314,15.53,28.03,16.44
1.15,-84.0,303.5098039215686,236.01960784313727,11.44,30.06,6.88
1.2,-236.49019607843138,264.0,-160.49019607843138,6.08,33.88,13.15
1.25,-179.0,74.50980392156863,-252.49019607843138,5.35,23.94,15.53
1.3,131.49019607843138,31.019607843137255,175.01960784313727,-0.1,20.54,14.69
1.35,217.0,232.0,-70.98039215686275,-4.34,23.41,17.56
1.4,-252.49019607843138,313.0,67.01960784313725,-4.76,22.54,20.04
1.45,122.0,-203.49019607843138,-182.47058823529412,-2.2,14.77,12.69
1.5,138.0,-290.0,236.01960784313727,-1.61,10.53,0.69
1.55,-140.49019607843138,-100.50980392156863,-190.49019607843138,-10.53,13.26,-7.77
1.6,249.0,-138.49019607843138,267.01960784313724,-5.56,5.91,-8.93
1.65,-107.50980392156863,-105.49019607843137,159.01960784313727,-0.28,-1.43,-9.45
1.7,-29.49019607843137,-100.50980392156863,-298.4901960784314,-5.39,-2.83,-18.38
1.75,-227.0,254.50980392156862,-221.49019607843138,-2.8,-6.61,-29.4
1.8,226.49019607843138,129.01960784313727,190.01960784313727,-8.71,-9.3,-35.91
1.85,-290.0,199.0,282.01960784313724,3.63,-17.35,-40.88
1.9,193.50980392156862,117.0,-175.49019607843138,-5.77,-10.07,-50.72
1.95,194.49019607843138,63.01960784313726,144.01960784313727,17.46,3.18,-69.27
2.0,-4.0,-225.0,36.01960784313726,16.97,14.66,-72.84
2.05,-13.490196078431373,264.0,-313.4901960784314,28.55,4.55,-62.2
2.1,4.490196078431373,-301.4901960784314,282.01960784313724,27.15,-11.12,-45.33
2.15,-218.50980392156862,-307.0,267.01960784313724,33.7,-30.44,-30.84
2.2,113.50980392156863,128.49019607843138,-21.49019607843137,16.3,-35.94,-24.05
2.25,-154.50980392156862,74.50980392156863,-190.49019607843138,-4.65,-35.76,-28.39
2.3,74.0,-160.0,-206.49019607843138,-19.95,-43.43,-31.64
2.35,-20.0,-209.0,-113.49019607843137,-57.64,-46.75,-40.01
2.4,-100.0,303.5098039215686,-129.49019607843138,-71.05,-65.79,-43.12
2.45,-147.0,-307.0,-129.49019607843138,-98.52,-78.57,-38.68
2.5,-243.0,319.5098039215686,-21.49019607843137,-91.38,-107.23,-36.93
2.55,-290.0,-225.0,70.50980392156863,-111.3,-122.11,-44.45
2.6,304.5098039215686,-274.0,178.50980392156862,-107.06,-148.36,-55.76
2.65,304.5098039215686,-94.0,193.50980392156862,-103.11,-169.67,-78.93
2.7,177.50980392156862,19.0,163.50980392156862,-109.48,-174.61,-99.3
2.75,-45.490196078431374,68.0,116.50980392156863,-93.83,-157.39,-97.55
2.8,-117.98039215686275,-214.50980392156862,255.50980392156862,-42.7,-151.75,-80.5
2.85,-275.0,41.509803921568626,24.50980392156863,-42.77,-118.01,-61.5
2.9,-156.49019607843138,19.0,-98.49019607843137,-10.39,-91.45,-41.37
2.95,142.52941176470588,242.49019607843138,239.50980392156862,-34.16,-52.46,-29.09
3.0,-29.49019607843137,-7.490196078431373,193.50980392156862,-25.2,-51.72,-25.38
3.05,-140.49019607843138,-176.0,178.50980392156862,-17.22,-43.25,-14.53
3.1,-95.47058823529412,-302.01960784313724,-233.0,16.2,-41.12,-6.2
3.15,-38.98039215686274,-258.0,270.5098039215686,-15.85,-35.87,8.98
3.2,-77.49019607843137,-40.490196078431374,-203.0,33.8,-43.6,14.37
3.25,-64.47058823529412,209.49019607843138,-203.0,-23.31,-13.96,9.82
3.3,301.52941176470586,-274.0,89.0,-0.84,-41.33,-16.66
3.35,193.50980392156862,-236.49019607843138,147.50980392156862,-25.3,-9.27,2.72
3.4,206.52941176470588,-231.50980392156862,-33.0,18.79,-6.61,-8.93
3.45,126.52941176470588,209.49019607843138,316.5098039215686,-28.38,-9.65,-24.5
3.5,320.5098039215686,-285.4901960784314,12.0,9.16,-5.0,-1.89
3.55,168.01960784313727,183.0,-126.0,-29.78,5.98,-16.1
3.6,-64.47058823529412,-198.50980392156862,196.0,-11.02,6.44,-5.85
3.65,-299.4901960784314,-170.49019607843138,-203.0,-9.8,13.72,-3.78
3.7,184.01960784313727,254.50980392156862,-218.0,-2.55,20.51,1.81
3.75,-302.47058823529414,193.49019607843138,27.0,-15.01,33.11,13.11
3.8,-276.98039215686276,319.5098039215686,43.0,-4.93,25.83,16.72
3.85,57.01960784313726,-62.0,-110.0,2.37,19.28,9.89
3.9,9.019607843137255,133.0,-95.0,9.23,9.9,9.02
3.95,216.01960784313727,19.0,-110.0,2.79,5.0,6.43
4.0,247.01960784313727,-62.0,-64.0,4.47,3.81,7.48
4.05,279.01960784313724,35.0,-64.0,5.17,4.13,7.16
4.1,-220.49019607843138,3.0,-18.0,6.5,-10.35,0.02
4.15,2.5098039215686274,-13.0,-79.0,25.51,-15.29,-16.42
4.2,34.509803921568626,3.0,-33.0,14.48,-22.78,0.69
4.25,-61.490196078431374,-94.0,27.0,17.67,-25.82,-8.09
4.3,2.5098039215686274,-45.0,-172.0,-2.45,-24.67,-20.72
4.35,-70.98039215686275,111.49019607843137,150.0,-33.14,-11.16,-19.71
4.4,72.01960784313725,-127.0,-141.0,-3.74,-22.39,-14.11
4.45,-290.0,-154.49019607843138,101.50980392156863,15.74,-0.59,12.76
4.5,-131.0,-252.49019607843138,116.50980392156863,-9.41,106.19,65.65
4.55,285.52941176470586,139.50980392156862,-203.0,-63.77,174.16,86.75
4.6,245.0392156862745,193.49019607843138,-33.0,-56.35,229.0,98.83
4.65,54.03921568627451,307.4901960784314,286.5098039215686,5.21,254.97,103.48
4.7,174.52941176470588,-67.50980392156863,301.5098039215686,3.74,289.62,96.52
4.75,311.01960784313724,237.50980392156862,-206.49019607843138,40.63,294.42,87.28
4.8,58.0,25.50980392156863,-190.49019607843138,79.51,285.53,34.64
4.85,-163.0,-160.0,-218.0,86.37,258.54,-23.35
4.9,129.50980392156862,275.4901960784314,89.0,68.03,251.47,-61.36
4.95,320.5098039215686,-269.01960784313724,135.0,13.5,268.27,-70.42
5.0,97.50980392156863,-182.50980392156862,209.50980392156862,3.84,233.52,-62.06
5.05,83.49019607843137,139.50980392156862,-190.49019607843138,19.07,148.36,30.33
5.1,308.47058823529414,-219.49019607843138,-132.98039215686273,38.67,99.96,63.83
5.15,-24.529411764705884,-290.0,36.01960784313726,21.34,127.61,92.49
5.2,-225.01960784313727,-149.50980392156862,-233.0,48.43,156.9,88.5
5.25,-234.50980392156862,-269.01960784313724,12.0,72.02,115.18,85.91
5.3,258.4901960784314,52.0,301.5098039215686,54.77,75.53,77.83
5.35,-183.52941176470588,227.01960784313727,116.50980392156863,35.87,46.06,48.71
5.4,235.98039215686273,205.50980392156862,-310.0,27.47,12.46,12.41
5.45,290.4901960784314,-176.0,-49.0,16.3,-10.67,-24.36
5.5,131.49019607843138,303.5098039215686,-203.0,-0.45,-32.3,-57.02
5.55,67.49019607843137,-290.0,-64.0,-9.31,-51.9,-87.57
5.6,-123.50980392156863,-78.0,-264.0,-14.84,-80.95,-155.79
5.65,51.490196078431374,-62.0,-18.0,47.73,-55.85,-144.34
5.7,186.0,232.0,116.50980392156863,-113.05,27.72,4.89
5.75,313.0,-111.0,292.4901960784314,-26.07,57.12,117.48
5.8,-123.50980392156863,-258.0,-203.0,7.24,65.24,174.95
5.85,74.0,166.0,-18.0,11.58,82.21,110.06
5.9,-107.50980392156863,3.0,-187.0,12.73,110.98,38.77
5.95,99.49019607843137,52.0,27.0,11.65,82.42,13.43
6.0,-75.50980392156863,3.0,-141.0,-6.44,63.17,-4.66
6.05,-100.0,-307.0,24.50980392156863,-9.97,28.73,-19.25
6.1,297.0,237.50980392156862,89.0,-5.21,-4.54,-25.9
6.15,-139.50980392156862,-127.0,73.0,0.45,-15.36,-48.02
6.2,-289.01960784313724,303.5098039215686,304.0,-17.88,-26.28,-56.95
6.25,-209.01960784313727,-307.0,304.0,-17.88,-45.39,-46.13
6.3,44.98039215686274,-290.0,227.0,-8.89,-55.01,-62.27
6.35,60.98039215686274,-192.0,27.0,-13.19,-35.48,-49.63
6.4,140.98039215686273,-127.0,-110.0,5.45,25.41,32.68
6.45,-40.529411764705884,-127.0,196.0,13.01,31.53,93.16
6.5,181.47058823529412,-225.0,289.0,27.05,28.77,106.6
6.55,-152.52941176470588,-176.0,135.0,38.77,23.41,90.39
6.6,171.98039215686273,-192.0,43.0,13.64,3.64,58.86
6.65,-98.01960784313725,303.5098039215686,-95.0,14.17,-30.37,21.37
6.7,-225.01960784313727,319.5098039215686,-64.0,24.46,-58.41,-22.16
6.75,-257.01960784313724,-241.0,58.0,-3.04,-60.86,-70.39
6.8,147.49019607843138,-241.0,104.0,17.39,-56.2,-113.58
6.85,178.49019607843138,-111.0,89.0,-10.57,-98.97,-201.64
6.9,115.49019607843137,-225.0,181.0,-125.02,27.89,-150.05
6.95,288.5098039215686,313.0,-36.490196078431374,-37.97,-0.69,-6.9
7.0,19.49019607843137,188.50980392156862,123.49019607843137,31.84,28.14,122.17
7.05,-266.5098039215686,156.50980392156862,-249.0,30.41,66.88,143.49
7.1,-195.0,199.0,-203.0,16.16,105.56,81.29
7.15,-186.50980392156862,117.0,-49.0,-9.1,105.14,52.7
7.2,-177.01960784313727,-209.0,166.0,-1.12,61.88,33.8
7.25,12.980392156862745,205.50980392156862,-215.50980392156862,4.54,24.25,23.3
7.3,306.4901960784314,-290.0,273.0,-11.76,-2.62,-5.95
7.35,163.49019607843138,-209.0,-95.0,-15.75,-7.8,-25.38
7.4,-241.01960784313727,-160.0,89.0,-0.24,-1.46,-33.36
7.45,-18.019607843137255,221.50980392156862,181.0,2.55,-17.14,-28.46
7.5,290.4901960784314,-192.0,27.0,-15.33,-50.5,-40.92
7.55,226.49019607843138,-176.0,27.0,3.28,-97.15,-38.26
7.6,-161.01960784313727,-209.0,43.0,12.56,-89.03,-53.83
7.65,-114.01960784313725,-94.0,73.0,14.59,-37.48,-13.09
7.7,251.98039215686273,-94.0,166.0,4.51,16.69,52.24
7.75,213.47058823529412,-192.0,135.0,29.25,53.69,91.93
7.8,54.470588235294116,-241.0,73.0,28.66,64.61,86.02
7.85,299.98039215686276,-241.0,73.0,20.54,22.75,73.24
7.9,12.980392156862745,-274.0,58.0,18.75,-8.11,46.78
7.95,-225.01960784313727,-225.0,-18.0,2.2,-32.26,0.86
8.0,-320.01960784313724,-307.0,43.0,9.9,-37.41,-32.87
8.05,194.49019607843138,319.5098039215686,-64.0,24.49,-83.01,-88.06
8.1,258.4901960784314,-258.0,43.0,-14.31,-84.73,-163.21
8.15,-154.50980392156862,-94.0,-18.0,-34.05,-98.8,-262.29
8.2,-107.50980392156863,84.0,-156.0,-97.51,4.51,-56.18
8.25,208.50980392156862,242.49019607843138,-18.0,-109.41,71.47,75.17
8.3,-43.509803921568626,-111.47058823529412,150.0,48.64,34.19,168.02
8.35,-123.50980392156863,-94.0,224.50980392156862,1.88,66.5,130.64
8.4,58.0,232.0,-203.0,3.04,83.02,64.28
8.45,147.49019607843138,319.5098039215686,-18.0,-18.97,117.0,38.24
8.5,201.0,-307.0,-18.0,-3.32,93.69,22.46
8.55,-52.0,-160.0,-310.0,-4.3,28.52,6.6
8.6,4.490196078431373,-78.0,-110.0,-13.4,2.62,-27.9
8.65,203.98039215686273,254.50980392156862,-246.50980392156862,-11.37,-15.64,-34.2
8.7,-114.01960784313725,156.50980392156862,258.0,-3.81,-38.88,-45.36
8.75,-273.01960784313724,-192.0,73.0,-18.09,-72.51,-74.83
8.8,242.49019607843138,-143.0,43.0,-13.16,-96.21,-83.69
8.85,-114.01960784313725,-160.0,27.0,-5.67,-95.23,-67.41
8.9,251.98039215686273,-290.0,73.0,14.24,-69.43,-11.66
8.95,-88.52941176470588,-127.0,-218.0,7.87,-10.91,56.37
9.0,38.470588235294116,-62.0,-33.0,5.38,55.75,87.77
9.05,-104.52941176470588,-209.0,89.0,25.23,57.71,90.88
9.1,-311.52941176470586,-258.0,-64.0,17.04,35.45,80.45
9.15,108.98039215686275,-290.0,-80.0,11.16,-8.32,57.56
9.2,-18.019607843137255,-290.0,-79.0,6.05,-37.41,23.51
9.25,-305.01960784313724,-209.0,-141.0,22.22,-66.28,-21.91
9.3,-241.01960784313727,270.5098039215686,-172.0,7.76,-72.37,-65.28
9.35,178.49019607843138,-274.0,-141.0,-21.14,-43.46,-131.36
9.4,-43.509803921568626,-29.0,-264.0,16.41,-90.68,-248.4
9.45,-43.509803921568626,101.0,58.0,-110.07,29.99,-125.34
9.5,129.50980392156862,160.49019607843138,150.0,-49.7,54.6,73.77
9.55,242.49019607843138,19.529411764705884,61.490196078431374,71.85,54.7,182.41
9.6,-313.5098039215686,-160.0,-295.0,5.59,71.78,114.93
9.65,-100.0,-247.50980392156862,-49.0,1.5,103.91,52.07
9.7,42.0,-176.0,43.0,-16.73,169.96,42.72
9.75,-27.50980392156863,117.0,55.509803921568626,-7.24,90.93,10.38
9.8,-24.529411764705884,117.0,-46.509803921568626,-13.65,52.88,-9.94
9.85,171.98039215686273,-143.0,15.490196078431373,-3.74,51.45,-18.52
9.9,12.980392156862745,107.50980392156863,135.0,-14.17,22.61,-31.54
9.95,194.49019607843138,-78.0,58.0,-27.05,-11.37,-36.4
10.0,210.49019607843138,-127.0,73.0,1.15,-65.58,-37.14
10.05,-305.01960784313724,319.5098039215686,104.0,-3.36,-107.86,-71.4
10.1,-193.01960784313727,-274.0,227.0,5.42,-45.04,-52.78
10.15,267.98039215686276,-192.0,-138.50980392156862,-2.34,10.5,34.11
10.2,277.47058823529414,-274.0,-292.5098039215686,6.71,40.95,99.95
10.25,-270.03921568627453,-290.0,-138.50980392156862,29.57,24.29,112.27
10.3,-183.52941176470588,319.5098039215686,258.0,19.45,-9.76,84.27
10.35,-18.019607843137255,-176.0,120.0,29.36,-31.42,48.46
10.4,-82.01960784313725,-143.0,119.0,10.35,-50.74,4.22
10.45,-209.01960784313727,319.5098039215686,89.0,-1.78,-63.73,-36.89
10.5,210.49019607843138,254.50980392156862,120.0,10.81,-54.14,-75.71
10.55,115.49019607843137,-192.0,-18.0,3.63,-56.24,-148.75
10.6,99.49019607843137,-176.0,58.0,42.55,-123.72,-296.42
10.65,-59.509803921568626,-29.0,304.0,-103.77,14.76,-82.99
10.7,-204.49019607843138,-2.5098039215686274,-264.0,27.01,43.05,104.32
10.75,147.49019607843138,52.529411764705884,-246.50980392156862,53.82,36.4,160.22
10.8,265.0,-258.0,-3.0,-20.96,103.7,126.58
10.85,42.0,248.0,89.0,-5.91,138.8,48.64
10.9,-11.509803921568627,166.0,-3.0,4.26,111.12,18.22
10.95,-18.019607843137255,-78.0,227.0,-22.89,102.79,-12.08
11.0,-104.52941176470588,-274.0,289.0,-26.7,71.85,-21.39
11.05,203.98039215686273,-160.0,-307.5098039215686,-33.07,40.32,-29.44
11.1,306.4901960784314,-78.0,150.0,-23.73,11.06,-40.43
11.15,-209.01960784313727,-241.0,181.0,-7.31,-9.79,-55.86
11.2,99.49019607843137,-274.0,89.0,-16.48,-32.86,-73.61
11.25,-305.01960784313724,-192.0,289.0,16.72,-68.03,-80.4
11.3,12.980392156862745,-78.0,166.0,12.66,-70.06,-70.46
11.35,44.98039215686274,-45.0,212.0,17.25,-24.98,54.48
11.4,174.9607843137255,101.0,276.4901960784314,21.38,12.0,101.24
11.45,-0.0392156862745098,-78.0,-196.01960784313727,-7.56,3.22,114.3
11.5,267.98039215686276,-176.0,-46.509803921568626,41.96,-22.78,86.96
11.55,44.98039215686274,254.50980392156862,-199.50980392156862,35.52,-33.73,71.95
11.6,-82.01960784313725,-176.0,304.0,35.41,-59.32,37.93
11.65,-257.01960784313724,221.50980392156862,304.0,-2.76,-61.91,-20.62
11.7,131.49019607843138,107.50980392156863,27.0,15.92,-65.83,-56.63
11.75,-91.50980392156863,-127.0,12.0,4.72,-62.47,-98.07
11.8,163.49019607843138,-29.0,12.0,-7.21,-70.34,-211.68
11.85,-11.509803921568627,-62.0,135.0,-94.43,-32.61,-160.58
11.9,304.5098039215686,-296.5098039215686,24.50980392156863,-90.51,9.34,12.03
11.95,-43.509803921568626,-236.49019607843138,-89.01960784313725,43.6,36.36,148.67
12.0,-139.50980392156862,-78.0,301.5098039215686,32.65,80.64,135.86
12.05,-100.0,52.0,-3.0,18.68,104.09,83.01
12.1,-186.50980392156862,281.0,89.0,-11.55,48.72,49.02
12.15,163.49019607843138,-307.0,150.0,-8.43,90.79,24.84
12.2,186.0,303.5098039215686,27.0,-13.68,73.67,-2.1
12.25,-257.01960784313724,35.0,-49.0,-30.9,46.23,-43.23
12.3,-225.01960784313727,139.50980392156862,-76.50980392156863,-27.54,-0.45,-41.9
12.35,-209.01960784313727,-94.0,150.0,-14.45,-38.32,-48.55
12.4,-209.01960784313727,-209.0,58.0,-6.09,-46.26,-67.59
12.45,-193.01960784313727,-29.0,-18.0,-0.03,-93.9,-77.67
12.5,-320.01960784313724,-29.0,-64.0,4.65,-80.21,-71.12
12.55,-18.019607843137255,-62.0,196.0,-2.45,-29.99,-15.19
12.6,-311.52941176470586,19.0,273.0,18.51,-6.61,79.02
12.65,277.47058823529414,-94.0,166.0,10.35,13.65,130.71
12.7,149.47058823529412,-143.0,273.0,56.24,3.64,119.02
12.75,251.98039215686273,-94.0,-18.0,44.23,-8.71,91.65
12.8,44.98039215686274,-111.0,-110.0,22.29,-28.1,61.2
12.85,-177.01960784313727,-160.0,-233.0,19.38,-42.17,19.8
12.9,-289.01960784313724,286.5098039215686,-172.0,16.44,-54.84,-33.08
12.95,-289.01960784313724,319.5098039215686,-18.0,-12.91,-15.88,-80.08
13.0,-154.50980392156862,-94.0,-203.0,-13.93,-71.74,-181.23
13.05,178.49019607843138,-209.0,58.0,-27.26,-98.17,-209.09
13.1,-186.50980392156862,-280.5098039215686,-264.0,-25.44,-10.0,-66.43
13.15,-275.0,-247.50980392156862,258.0,-47.14,57.64,102.61
13.2,-75.50980392156863,-279.98039215686276,-30.50980392156863,20.92,92.99,197.07
13.25,74.0,19.0,-156.0,18.51,73.67,101.35
13.3,-123.50980392156863,-312.5098039215686,227.0,-18.37,92.15,56.58
13.35,-202.50980392156862,-160.0,89.0,9.13,68.28,24.1
13.4,-18.019607843137255,35.0,-141.0,1.64,22.47,-4.94
13.45,155.98039215686273,-13.0,-187.0,1.15,-2.27,-28.39
13.5,-193.01960784313727,-192.0,181.0,-3.08,-14.13,-39.17
13.55,290.4901960784314,-127.0,73.0,-0.94,-29.29,-35.7
13.6,19.49019607843137,-176.0,-49.0,-17.25,-43.29,-55.93
13.65,194.49019607843138,-160.0,73.0,-13.4,-61.35,-74.69
13.7,-193.01960784313727,-29.0,135.0,2.97,-73.81,-77.32
13.75,-34.01960784313726,-111.0,43.0,18.4,-43.5,-22.23
13.8,-279.52941176470586,-143.0,-33.0,-4.2,23.24,51.65
13.85,149.47058823529412,35.0,150.0,1.32,57.61,97.46
13.9,6.470588235294118,-13.0,-18.0,20.05,55.16,114.89
13.95,299.98039215686276,19.0,-95.0,24.74,28.56,109.08
14.0,28.980392156862745,-209.0,-33.0,35.62,-3.28,80.84
14.05,-225.01960784313727,-307.0,-156.0,18.79,-34.4,50.95
14.1,-66.01960784313725,-290.0,-64.0,16.51,-47.14,10.03
14.15,258.4901960784314,-225.0,-33.0,18.26,-43.22,-37.14
14.2,83.49019607843137,-209.0,-95.0,4.65,7.21,-80.47
14.25,-202.50980392156862,-307.0,-49.0,-21.45,-2.09,-152.25
14.3,-139.50980392156862,-45.0,-33.0,-36.26,-88.51,-221.27
14.35,-202.50980392156862,133.0,-233.0,-51.24,-30.62,-57.79
14.4,11.0,117.0,270.5098039215686,-23.83,48.96,86.79
14.45,-186.50980392156862,243.01960784313727,92.49019607843137,14.66,79.48,153.57
14.5,281.0,-176.0,43.0,24.7,54.56,109.01
14.55,-91.50980392156863,52.0,73.0,7.76,77.14,69.74
14.6,-75.50980392156863,166.0,-18.0,10.14,47.07,45.59
14.65,-34.01960784313726,166.0,-199.50980392156862,-2.06,96.17,21.83
14.7,99.49019607843137,35.0,286.5098039215686,-11.79,55.86,-4.66
14.75,99.49019607843137,-29.0,-218.0,-4.23,52.74,-26.71
14.8,163.49019607843138,254.50980392156862,166.0,-20.16,14.94,-41.51
14.85,115.49019607843137,-290.0,119.0,-15.29,-0.48,-42.74
14.9,-241.01960784313727,-62.0,-215.50980392156862,-9.66,-49.76,-36.44
14.95,-225.01960784313727,-209.0,289.0,3.63,-75.35,-25.1
15.0,-209.01960784313727,-176.0,150.0,9.02,-55.54,-7.46
15.05,155.98039215686273,-225.0,-261.5098039215686,8.11,-18.09,33.1
15.1,134.47058823529412,-209.0,-153.50980392156862,13.43,19.81,68.38
15.15,197.47058823529412,-274.0,-92.50980392156863,24.67,22.01,76.36
15.2,-279.52941176470586,319.5098039215686,181.0,13.78,-3.67,66.28
15.25,-34.01960784313726,303.5098039215686,104.0,8.57,-28.27,59.31
15.3,-241.01960784313727,254.50980392156862,-33.0,20.5,-57.32,30.79
15.35,-273.01960784313724,-290.0,-49.0,18.65,-73.25,-15.96
15.4,290.4901960784314,-192.0,58.0,20.47,-102.68,-62.79
15.45,226.49019607843138,-290.0,104.0,-19.91,-88.16,-126.53
15.5,-139.50980392156862,-258.0,-64.0,12.03,-95.75,-230.2
15.55,19.49019607843137,-78.0,43.0,-68.67,-15.85,-135.49
15.6,-147.0,297.0,43.0,-87.71,-17.14,47.73
15.65,-59.509803921568626,-83.98039215686275,-212.01960784313727,75.03,11.06,169.18
15.7,-234.50980392156862,-13.0,-279.0,-6.23,69.19,111.78
15.75,42.0,-94.0,-187.0,-17.25,159.7,89.59
15.8,186.0,199.0,178.50980392156862,12.84,68.56,28.97
15.85,197.47058823529412,-78.0,-61.509803921568626,-38.08,53.06,-9.98
15.9,108.98039215686275,123.50980392156863,43.0,-7.52,75.53,-29.19
15.95,-289.01960784313724,-45.0,209.50980392156862,-8.61,39.83,-40.95
16.0,-215.52941176470588,-143.0,-46.509803921568626,-14.45,30.06,-51.59
16.05,28.980392156862745,-160.0,-230.50980392156862,-26.18,-6.47,-44.59
16.1,-273.01960784313724,-111.0,43.0,-9.69,-71.67,-45.64
16.15,-273.01960784313724,-29.0,-18.0,-0.07,-88.58,-59.61
16.2,-114.01960784313725,-94.0,89.0,5.84,-21.38,-33.95
16.25,203.98039215686273,-258.0,-230.50980392156862,1.15,46.27,33.87
16.3,118.47058823529412,-127.0,-246.50980392156862,-5.53,47.42,86.79
16.35,118.47058823529412,-127.0,-276.5098039215686,14.73,22.22,101.73
16.4,-199.52941176470588,303.5098039215686,273.0,11.89,-6.36,83.81
16.45,28.980392156862745,319.5098039215686,135.0,7.34,-36.64,50.14
16.5,-320.01960784313724,-258.0,-79.0,19.77,-59.0,32.08
16.55,-241.01960784313727,-192.0,120.0,10.84,-85.39,-12.53
16.6,290.4901960784314,319.5098039215686,104.0,7.87,-68.0,-48.48
16.65,35.490196078431374,-209.0,-3.0,44.83,-85.08,-94.43
16.7,210.49019607843138,-62.0,-3.0,1.36,-135.44,-263.17
16.75,115.49019607843137,-225.0,258.0,-75.6,5.11,-128.21
16.8,129.50980392156862,-51.509803921568626,-95.0,-32.16,14.49,75.1
16.85,-107.50980392156863,182.52941176470588,292.4901960784314,32.09,51.17,158.57
16.9,249.0,-127.0,-218.0,19.07,57.01,122.21
16.95,154.0,52.0,27.0,-27.23,142.27,110.38
17.0,217.0,117.0,163.50980392156862,41.26,75.0,54.73
17.05,267.98039215686276,117.0,-199.50980392156862,3.74,71.61,28.97
17.1,-3.019607843137255,-111.0,-156.0,-3.57,5.39,-3.33
17.15,-263.52941176470586,270.5098039215686,27.0,9.58,31.46,-25.62
17.2,147.49019607843138,319.5098039215686,-95.0,-24.78,-10.32,-81.27
17.25,-114.01960784313725,139.50980392156862,289.0,-41.86,-43.99,-77.42
17.3,-241.01960784313727,221.50980392156862,-110.0,-14.31,-112.8,-54.32
17.35,-295.52941176470586,270.5098039215686,181.0,-10.08,-140.31,-56.46
17.4,299.98039215686276,-192.0,-3.0,-7.8,-139.47,-37.14
17.45,76.98039215686275,-160.0,-79.0,13.57,-149.79,12.24
17.5,-50.01960784313726,-78.0,-233.0,-31.88,-184.06,25.71
17.55,-305.01960784313724,19.0,-218.0,-117.04,-247.41,86.09
17.6,35.490196078431374,-13.0,-175.49019607843138,-293.05,-237.36,94.24
17.65,-257.01960784313724,-111.0,-175.49019607843138,-105.56,89.42,-14.91
17.7,235.98039215686273,-17.980392156862745,-289.01960784313724,-99.96,265.85,-21.18
17.75,-195.0,150.0,316.5098039215686,-91.07,286.54,-60.62
17.8,-163.0,313.0,119.0,-46.62,-305.68,-94.15
17.85,113.50980392156863,52.0,-18.0,-53.44,-210.48,-127.44
17.9,136.01960784313727,-231.50980392156862,-129.49019607843138,-57.05,-180.77,-118.02
17.95,-149.98039215686273,-231.50980392156862,-236.49019607843138,-15.36,-192.04,-109.06
18.0,-245.98039215686273,-296.5098039215686,-144.49019607843138,-13.19,-165.96,-79.31
18.05,-308.98039215686276,19.0,224.50980392156862,-44.69,-52.63,-11.66
18.1,222.52941176470588,3.0,70.50980392156863,-55.05,1.33,48.43
18.15,-38.98039215686274,-45.0,-6.490196078431373,-1.05,-4.12,-12.36
18.2,18.50980392156863,-312.5098039215686,-187.0,-3.92,21.87,-31.47
18.25,113.50980392156863,52.0,-49.0,-8.82,5.77,-33.85
18.3,18.50980392156863,-45.0,-110.0,13.47,-13.57,-45.75
18.35,-172.49019607843138,84.0,-218.0,30.79,-43.64,-21.04
18.4,-156.49019607843138,-62.0,-187.0,16.41,-41.89,-21.18
18.45,295.01960784313724,-127.0,-80.0,-32.83,25.69,-4.27
18.5,88.01960784313725,-127.0,289.0,12.87,4.97,-9.8
18.55,311.01960784313724,3.0,43.0,11.96,7.14,-7.35
18.6,247.01960784313727,-62.0,-95.0,16.51,14.56,-8.26
18.65,231.01960784313727,-62.0,-64.0,38.67,-22.64,-15.58
18.7,-124.49019607843137,-160.0,-79.0,-3.18,-13.08,-2.31
18.75,88.01960784313725,-176.0,-95.0,2.69,4.69,-14.14
18.8,-54.98039215686274,-29.0,104.0,-0.66,-8.81,-18.2
18.85,231.01960784313727,-111.0,-49.0,-12.11,1.47,0.06
18.9,57.01960784313726,-111.0,12.0,-4.86,13.02,-3.36
18.95,136.01960784313727,-111.0,-79.0,27.15,-18.72,-9.14
19.0,216.01960784313727,-127.0,-18.0,-12.11,19.11,6.6
19.05,-101.98039215686275,-209.0,89.0,10.39,4.55,2.89
19.1,200.01960784313727,-45.0,-79.0,29.71,-11.44,-4.66
19.15,200.01960784313727,-111.0,-64.0,9.97,-3.25,-1.12
19.2,279.01960784313724,-192.0,-64.0,-7.59,7.38,1.35
19.25,168.01960784313727,-143.0,27.0,8.46,-3.6,-3.96
19.3,311.01960784313724,-78.0,-126.0,3.67,0.63,0.13
19.35,168.01960784313727,-176.0,-95.0,4.33,-0.13,-1.16
19.4,263.01960784313724,-143.0,-3.0,6.33,5.49,2.3
19.45,231.01960784313727,-78.0,-80.0,17.32,-5.14,-8.72
19.5,-315.4901960784314,-78.0,-49.0,-28.42,30.69,17.21
19.55,-197.98039215686273,-258.0,196.0,64.15,-25.86,0.86
19.6,-156.49019607843138,-45.0,-310.0,30.69,2.38,0.72
19.65,-308.98039215686276,-209.0,304.0,22.46,48.96,40.83
19.7,-213.98039215686273,-45.0,239.50980392156862,141.43,68.28,97.5
19.75,222.52941176470588,-35.509803921568626,316.5098039215686,33.45,134.96,137.71
19.8,253.52941176470588,-225.0,286.5098039215686,57.64,135.59,142.05
19.85,-133.98039215686273,-312.5098039215686,55.509803921568626,36.71,131.18,123.01
19.9,57.01960784313726,183.0,-52.490196078431374,27.82,130.34,108.21
19.95,231.01960784313727,232.0,24.50980392156863,45.98,118.96,99.0
20.0,-283.4901960784314,264.0,39.509803921568626,50.01,113.36,88.19
20.05,-124.49019607843137,215.0,39.509803921568626,54.66,106.75,74.05
20.1,-77.49019607843137,215.0,101.50980392156863,155.64,69.54,30.16
20.15,65.50980392156863,183.0,86.50980392156863,112.83,26.81,-15.47
20.2,-147.0,166.0,-144.49019607843138,93.09,52.67,-14.46
20.25,49.509803921568626,215.0,101.50980392156863,-15.71,108.22,84.34
20.3,240.50980392156862,35.0,86.50980392156863,48.47,46.72,33.66
20.35,-147.0,-312.5098039215686,-21.49019607843137,55.08,44.76,21.02
20.4,-147.0,150.0,-21.49019607843137,61.21,19.6,53.01
20.45,58.0,101.0,-113.49019607843137,57.53,40.14,-16.59
20.5,-227.0,84.0,39.509803921568626,55.26,46.2,-30.56
20.55,-100.0,35.0,-236.49019607843138,7.87,21.35,3.28
20.6,-4.0,-13.0,-190.49019607843138,-0.94,15.47,92.18
20.65,11.0,35.0,252.01960784313727,20.05,10.85,4.47
20.7,90.0,-13.0,-298.4901960784314,16.3,7.94,8.67
20.75,138.0,-78.0,-313.4901960784314,1.71,2.41,-3.5
20.8,42.0,-29.0,298.01960784313724,5.66,7.66,-0.95
20.85,-52.0,-29.0,298.01960784313724,-1.99,4.16,-7.49
20.9,27.0,-29.0,298.01960784313724,10.49,-5.1,-6.3
20.95,27.0,-45.0,313.01960784313724,10.07,-6.82,-8.4
21.0,27.0,-94.0,-298.4901960784314,-2.17,-15.78,-16.45
21.05,-20.0,-62.0,-298.4901960784314,-7.77,-14.13,-13.69
21.1,-36.0,-78.0,282.01960784313724,-16.55,-16.93,-10.08
21.15,-84.0,-94.0,313.01960784313724,-9.55,-25.89,-10.75
21.2,-68.0,-78.0,282.01960784313724,-10.88,-24.53,-12.78
21.25,-147.0,-94.0,282.01960784313724,-14.73,-19.8,-13.69
21.3,-211.0,-111.0,236.01960784313727,-14.45,-22.67,9.47
21.35,-163.0,-127.0,236.01960784313727,-10.11,-24.7,6.88
21.4,-147.0,-45.0,252.01960784313727,13.82,-14.55,19.8
21.45,-163.0,-62.0,236.01960784313727,9.06,-12.24,-6.23
21.5,-131.0,-13.0,236.01960784313727,-7.98,0.91,18.47
21.55,-163.0,-111.0,236.01960784313727,25.26,-21.69,34.99
21.6,-116.0,3.0,236.01960784313727,25.23,3.53,-57.3
21.65,-100.0,-45.0,252.01960784313727,-42.87,15.36,38.73
21.7,-147.0,-94.0,-313.4901960784314,38.11,-2.16,1.67
21.75,-36.0,68.0,236.01960784313727,2.48,1.26,21.79
21.8,288.5098039215686,139.50980392156862,-206.49019607843138,-3.64,2.03,43.18
21.85,-84.0,-78.0,-313.4901960784314,35.9,-17.18,52.84
21.9,-68.0,-143.0,-313.4901960784314,-21.77,12.25,26.9
21.95,-36.0,-29.0,236.01960784313727,-38.43,24.22,2.23
22.0,-131.0,52.0,-283.4901960784314,-35.24,19.39,-32.27
22.05,-100.0,52.0,252.01960784313727,22.32,-9.2,-19.53
22.1,-68.0,84.0,221.01960784313727,12.87,-5.35,-21.81
22.15,-131.0,52.0,298.01960784313724,32.44,-14.31,-7.07
22.2,-52.0,19.0,252.01960784313727,26.87,-15.78,4.29
22.25,-100.0,-45.0,298.01960784313724,-7.66,1.19,23.65
22.3,-116.0,-62.0,252.01960784313727,20.99,-10.88,37.09
22.35,-163.0,3.0,236.01960784313727,28.27,-9.48,63.16
22.4,-68.0,3.0,252.01960784313727,26.56,-6.92,22.81
22.45,-306.0,-78.0,298.01960784313724,-5.14,-1.18,-12.85
22.5,-195.0,-160.0,282.01960784313724,-45.39,25.69,-87.92
22.55,-227.0,-29.0,-298.4901960784314,-42.87,19.91,-45.54
22.6,-52.0,-13.0,-298.4901960784314,-14.14,6.33,0.69
22.65,106.0,-127.0,236.01960784313727,-6.19,10.88,-2.94
22.7,-68.0,-111.0,298.01960784313724,-86.13,56.14,50.67
22.75,-100.0,-45.0,252.01960784313727,37.3,-0.13,83.04
22.8,58.0,-182.50980392156862,252.01960784313727,15.71,16.38,52.56
22.85,-116.0,84.0,236.01960784313727,9.79,-7.45,-3.33
22.9,27.0,-13.0,-298.4901960784314,-28.7,6.16,-60.73
22.95,-52.0,-45.0,206.01960784313727,29.81,-11.37,-33.46
23.0,58.0,68.0,252.01960784313727,21.76,0.42,-1.19
23.05,-36.0,19.0,221.01960784313727,0.8,2.69,-1.86
23.1,-52.0,-29.0,298.01960784313724,12.0,-7.55,-10.71
23.15,11.0,-13.0,267.01960784313724,1.29,-7.52,-5.71
23.2,-36.0,-62.0,282.01960784313724,4.51,-16.27,-5.78
23.25,-20.0,-13.0,298.01960784313724,8.01,-17.25,-2.98
23.3,-52.0,19.0,298.01960784313724,-9.9,-10.95,18.71
23.35,-52.0,19.0,236.01960784313727,-2.83,3.29,-2.73
23.4,-227.0,19.0,252.01960784313727,-6.02,17.08,42.62
23.45,27.0,35.0,252.01960784313727,-12.81,42.42,36.67
23.5,90.0,52.0,282.01960784313724,6.47,3.99,20.6
23.55,-20.0,35.0,252.01960784313727,-10.85,-12.38,-30.56
23.6,-4.0,-29.0,313.01960784313724,-1.61,-21.73,-38.92
23.65,-20.0,-13.0,236.01960784313727,17.77,-23.79,-15.02
23.7,42.0,52.0,282.01960784313724,34.68,-13.47,22.49
23.75,11.0,101.0,-298.4901960784314,32.05,-8.01,-1.51
23.8,-131.0,3.0,267.01960784313724,-29.78,22.05,-19.01
23.85,-84.0,-94.0,267.01960784313724,21.83,4.23,-4.24
23.9,11.0,84.0,221.01960784313727,-22.15,3.11,-35.0
23.95,-84.0,-78.0,282.01960784313724,-1.19,-17.77,-31.96
24.0,-68.0,-78.0,221.01960784313727,49.48,-22.22,35.79
24.05,-20.0,84.0,-313.4901960784314,34.89,-14.8,27.11
24.1,11.0,-62.0,236.01960784313727,-9.31,13.86,-13.62
24.15,-211.0,-111.0,313.01960784313724,-44.48,22.22,-39.03
24.2,-116.0,-94.0,282.01960784313724,3.98,-6.4,-10.29
24.25,-4.0,19.0,236.01960784313727,18.79,-8.78,33.2
24.3,-20.0,3.0,298.01960784313724,21.38,-5.77,20.46
24.35,11.0,3.0,-313.4901960784314,-16.59,9.97,-16.17
24.4,-147.0,-127.0,267.01960784313724,-36.4,10.74,-40.08
24.45,-100.0,-94.0,267.01960784313724,-6.93,-7.87,-17.26
24.5,-68.0,3.0,313.01960784313724,11.37,-19.28,-21.14
24.55,-68.0,3.0,267.01960784313724,0.03,-13.61,-15.79
24.6,-131.0,-78.0,313.01960784313724,5.07,-11.37,-30.07
24.65,-84.0,-62.0,313.01960784313724,-7.63,-5.45,-27.2
24.7,-100.0,-78.0,313.01960784313724,-18.06,-2.2,-26.25
24.75,-163.0,-45.0,282.01960784313724,-8.68,-0.83,-51.91
24.8,-211.0,3.0,282.01960784313724,1.85,-0.03,-32.24
24.85,-227.0,-13.0,252.01960784313727,-1.75,7.35,-42.6
24.9,288.5098039215686,-143.0,267.01960784313724,-4.37,2.55,-36.75
24.95,-290.0,-78.0,313.01960784313724,-4.09,1.71,-41.76
25.0,-290.0,-45.0,313.01960784313724,-3.18,-0.38,-47.53
25.05,-227.0,-29.0,298.01960784313724,-2.06,2.8,-54.78
25.1,-195.0,-29.0,313.01960784313724,-1.54,7.1,-63.42
25.15,-290.0,-13.0,298.01960784313724,-15.15,11.02,-78.09
25.2,272.5098039215686,-62.0,-313.4901960784314,-25.48,11.9,-95.17
25.25,240.50980392156862,-62.0,-267.4901960784314,-39.27,2.13,-113.54
25.3,240.50980392156862,-13.0,-206.49019607843138,-50.92,-5.7,-125.23
25.35,272.5098039215686,35.0,-144.49019607843138,-66.74,-6.01,-133.42
25.4,256.5098039215686,117.0,-175.49019607843138,-85.71,-7.97,-138.01
25.45,304.5098039215686,183.0,-160.49019607843138,-102.51,-8.85,-141.16
25.5,320.5098039215686,297.0,-221.49019607843138,-96.56,-26.14,-145.71
25.55,-259.0,-182.50980392156862,267.01960784313724,-84.52,-35.55,-138.67
25.6,-227.0,-100.50980392156863,190.01960784313727,-82.0,-35.1,-119.32
25.65,-227.0,-51.509803921568626,129.01960784313727,-74.51,-23.41,-88.55
25.7,-211.0,-51.509803921568626,221.01960784313727,-62.79,-8.04,-55.06
25.75,-131.0,-84.50980392156863,298.01960784313724,-55.65,8.82,-38.68
25.8,-131.0,-116.50980392156863,236.01960784313727,-29.71,10.25,-34.13
25.85,-243.0,-165.50980392156862,-52.490196078431374,-46.27,15.43,-39.38
25.9,-306.0,-214.50980392156862,-129.49019607843138,-60.16,17.85,-46.66
25.95,240.50980392156862,-231.50980392156862,-83.49019607843137,-42.52,13.54,-51.17
26.0,161.50980392156862,-133.50980392156862,-190.49019607843138,-40.18,16.76,-47.11
26.05,129.50980392156862,-231.50980392156862,-160.49019607843138,-35.17,10.11,-43.54
26.1,208.50980392156862,-231.50980392156862,-190.49019607843138,-24.71,-0.41,-36.16
26.15,304.5098039215686,-198.50980392156862,-175.49019607843138,-15.08,-6.92,-24.47
26.2,304.5098039215686,-198.50980392156862,-175.49019607843138,-8.54,-11.47,-23.1
26.25,272.5098039215686,-182.50980392156862,-160.49019607843138,12.28,-15.6,-22.61
26.3,161.50980392156862,-165.50980392156862,-190.49019607843138,-6.54,-18.05,-41.69
26.35,34.509803921568626,-280.5098039215686,-160.49019607843138,-29.47,-12.59,-55.97
26.4,-188.49019607843138,-231.50980392156862,-175.49019607843138,-23.9,-10.63,-38.75
26.45,-299.4901960784314,-35.509803921568626,-206.49019607843138,-16.03,-15.71,0.76
26.5,-140.49019607843138,-263.5098039215686,-36.490196078431374,-19.04,4.16,13.11
26.55,-124.49019607843137,-263.5098039215686,24.50980392156863,3.98,-1.32,12.87
26.6,-61.490196078431374,-2.5098039215686274,132.50980392156862,-26.04,-7.73,31.1
26.65,97.50980392156863,-182.50980392156862,301.5098039215686,-77.84,-14.24,23.02
26.7,240.50980392156862,215.0,239.50980392156862,-59.43,-3.46,10.7
26.75,288.5098039215686,264.0,-21.49019607843137,27.75,5.95,15.42
26.8,208.50980392156862,232.0,-175.49019607843138,62.26,-17.53,27.36
26.85,145.50980392156862,-149.50980392156862,-36.490196078431374,51.58,-24.74,47.24
26.9,34.509803921568626,-231.50980392156862,-6.490196078431373,81.09,-36.39,44.89
26.95,2.5098039215686274,-149.50980392156862,-129.49019607843138,45.81,-23.23,44.12
27.0,-77.49019607843137,313.0,-113.49019607843137,59.63,-8.15,38.94
27.05,-77.49019607843137,-280.5098039215686,-67.49019607843137,36.71,-11.68,34.78
27.1,-61.490196078431374,-198.50980392156862,-113.49019607843137,37.48,-12.24,43.46
27.15,-140.49019607843138,291.4901960784314,24.50980392156863,12.24,11.72,18.12
27.2,295.01960784313724,-149.50980392156862,9.509803921568627,5.63,9.03,1.88
27.25,-45.490196078431374,-231.50980392156862,239.50980392156862,-8.85,-16.37,-1.75
27.3,304.5098039215686,-51.509803921568626,286.5098039215686,4.54,-19.14,-15.89
27.35,208.50980392156862,62.490196078431374,116.50980392156863,-41.4,27.02,-29.33
27.4,-188.49019607843138,-67.50980392156863,-206.49019607843138,-51.76,41.05,-63.56
27.45,-61.490196078431374,-263.5098039215686,101.50980392156863,-40.63,60.48,-107.73
27.5,113.50980392156863,281.0,-21.49019607843137,11.47,83.61,-156.84
27.55,161.50980392156862,232.0,-67.49019607843137,-55.79,101.53,-207.41
27.6,161.50980392156862,232.0,-21.49019607843137,-102.09,136.15,-158.52
27.65,2.5098039215686274,313.0,221.01960784313727,-122.29,114.24,-160.23
27.7,-77.49019607843137,-198.50980392156862,101.50980392156863,-158.09,63.63,-126.6
27.75,18.50980392156863,215.0,86.50980392156863,-115.78,15.08,-103.39
27.8,18.50980392156863,313.0,147.50980392156862,-13.12,-41.61,-121.0
27.85,-61.490196078431374,-198.50980392156862,9.509803921568627,-21.24,-57.85,-169.37
27.9,247.01960784313727,183.0,-36.490196078431374,-62.89,-20.68,-148.58
27.95,41.01960784313726,117.0,-83.49019607843137,-78.05,-19.03,-109.06
28.0,-188.49019607843138,117.0,55.509803921568626,-150.29,12.25,-114.91
28.05,311.01960784313724,3.0,209.50980392156862,-158.83,17.18,-121.14
28.1,-188.49019607843138,248.0,193.50980392156862,-68.63,1.57,-113.02
28.15,-93.49019607843137,-263.5098039215686,147.50980392156862,-63.56,-12.35,-99.16
28.2,-29.49019607843137,297.0,132.50980392156862,-73.01,-17.63,-75.08
28.25,-45.490196078431374,199.0,86.50980392156863,-67.62,-28.27,-62.48
28.3,18.50980392156863,215.0,9.509803921568627,-36.54,-39.61,-53.66
28.35,-93.49019607843137,248.0,-67.49019607843137,-30.76,-42.94,-46.97
28.4,-252.49019607843138,248.0,-129.49019607843138,-12.49,-55.96,-46.48
28.45,200.01960784313727,248.0,-190.49019607843138,10.7,-6.05,8.6
28.5,88.01960784313725,297.0,282.01960784313724,47.14,17.11,58.93
28.55,279.01960784313724,264.0,-144.49019607843138,1.85,67.55,94.84
28.6,216.01960784313727,84.0,-67.49019607843137,-24.88,86.76,118.6
28.65,311.01960784313724,117.0,39.509803921568626,-29.26,87.53,115.31
28.7,-283.4901960784314,117.0,163.50980392156862,-32.44,81.62,94.24
28.75,-252.49019607843138,150.0,224.50980392156862,-22.19,60.97,68.8
28.8,-124.49019607843137,150.0,301.5098039215686,-15.82,38.64,39.85
28.85,-61.490196078431374,150.0,-264.0,-5.14,9.73,11.08
28.9,-29.49019607843137,150.0,-280.0,4.05,-21.87,-22.09
28.95,18.50980392156863,133.0,-310.0,24.91,-47.42,-62.34
29.0,-108.49019607843137,183.0,239.50980392156862,54.7,-62.47,-96.04
29.05,-236.49019607843138,183.0,86.50980392156863,17.67,-64.15,-153.62
29.1,41.01960784313726,52.0,39.509803921568626,-59.71,-32.26,-109.87
29.15,-6.980392156862745,84.0,-67.49019607843137,22.88,-66.11,-58.87
29.2,-172.49019607843138,264.0,-206.49019607843138,-118.58,19.21,-48.51
29.25,200.01960784313727,-160.0,-36.490196078431374,-183.43,34.72,-58.0
29.3,-156.49019607843138,-78.0,86.50980392156863,-125.23,23.83,-57.19
29.35,-13.490196078431373,248.0,101.50980392156863,-10.57,-5.21,-50.51
29.4,81.50980392156863,-263.5098039215686,-6.490196078431373,48.36,-18.89,-39.13
29.45,129.50980392156862,297.0,-21.49019607843137,29.81,-19.49,-31.96
29.5,81.50980392156863,133.0,-6.490196078431373,-14.59,-15.85,-31.26
29.55,-108.49019607843137,101.0,-6.490196078431373,0.9,-28.41,-23.0
29.6,-236.49019607843138,281.0,-113.49019607843137,50.22,-42.87,4.4
29.65,-315.4901960784314,-312.5098039215686,-144.49019607843138,71.99,-4.96,33.73
29.7,152.01960784313727,-312.5098039215686,-190.49019607843138,78.04,45.92,72.37
29.75,72.01960784313725,313.0,-144.49019607843138,36.6,87.88,113.04
29.8,72.01960784313725,183.0,39.509803921568626,3.49,91.35,130.99
29.85,263.01960784313724,183.0,209.50980392156862,-12.67,94.6,125.6
29.9,247.01960784313727,199.0,286.5098039215686,4.44,72.73,108.63
29.95,-315.4901960784314,248.0,-295.0,22.43,40.7,98.44
30.0,-236.49019607843138,264.0,-218.0,28.52,23.2,91.58
30.05,-283.4901960784314,248.0,-218.0,11.19,0.84,83.32
30.1,-188.49019607843138,166.0,-218.0,-2.24,-22.71,53.33
30.15,-172.49019607843138,101.0,-295.0,-10.5,-36.57,-1.4
30.2,-188.49019607843138,68.0,286.5098039215686,-23.27,-52.74,-79.28
30.25,-252.49019607843138,35.0,193.50980392156862,-2.73,-50.88,-132.79
30.3,216.01960784313727,84.0,-52.490196078431374,55.01,-69.85,-122.92
30.35,-252.49019607843138,199.0,-236.49019607843138,2.16,-55.57,-112.84
30.4,-267.4901960784314,-62.0,-298.4901960784314,-142.41,9.17,-112.74
30.45,-299.4901960784314,-209.0,-160.49019607843138,-140.14,26.42,-110.57
30.5,-140.49019607843138,117.0,-21.49019607843137,-77.49,23.2,-105.11
30.55,-108.49019607843137,-247.50980392156862,55.509803921568626,-24.92,7.63,-78.58
30.6,-124.49019607843137,-231.50980392156862,70.50980392156863,-10.08,-12.77,-48.06
30.65,34.509803921568626,-263.5098039215686,116.50980392156863,13.96,-26.56,-26.88
30.7,-13.490196078431373,-296.5098039215686,24.50980392156863,12.49,-33.73,-10.61
30.75,-156.49019607843138,-263.5098039215686,-6.490196078431373,41.92,-57.36,-1.3
30.8,-299.4901960784314,-280.5098039215686,9.509803921568627,86.58,-19.45,43.56
30.85,41.01960784313726,-133.50980392156862,-283.4901960784314,144.05,3.43,101.91
30.9,-283.4901960784314,-182.50980392156862,-67.49019607843137,39.58,71.68,150.17
30.95,41.01960784313726,84.0,70.50980392156863,-13.61,65.48,166.66
31.0,311.01960784313724,183.0,193.50980392156862,37.16,43.47,143.8
31.05,311.01960784313724,-312.5098039215686,209.50980392156862,51.16,52.15,118.67
31.1,247.01960784313727,264.0,-295.0,40.73,35.03,94.8
31.15,-267.4901960784314,264.0,-187.0,20.82,-0.38,68.41
31.2,-140.49019607843138,232.0,-141.0,59.95,-29.64,48.64
31.25,-156.49019607843138,-296.5098039215686,-187.0,83.29,-50.78,33.2
31.3,-172.49019607843138,-296.5098039215686,-249.0,99.88,-59.91,17.63
31.35,-283.4901960784314,-312.5098039215686,209.50980392156862,92.95,-43.88,6.01
31.4,104.01960784313725,281.0,-21.49019607843137,65.37,-48.5,42.44
31.45,2.5098039215686274,133.0,-67.49019607843137,41.01,-29.32,48.39
31.5,-204.49019607843138,68.0,-206.49019607843138,27.57,-5.0,46.71
31.55,-172.49019607843138,150.0,-206.49019607843138,26.0,-8.36,52.49
31.6,81.50980392156863,166.0,-129.49019607843138,23.79,-14.87,52.0
31.65,113.50980392156863,281.0,-52.490196078431374,41.57,-29.92,68.45
31.7,161.50980392156862,-198.50980392156862,-36.490196078431374,49.52,-43.11,78.28
31.75,161.50980392156862,-198.50980392156862,55.509803921568626,56.83,-44.44,78.88
31.8,145.50980392156862,-116.50980392156863,24.50980392156863,45.53,-47.52,76.6
31.85,145.50980392156862,-182.50980392156862,163.50980392156862,5.63,-52.81,68.13
31.9,49.509803921568626,-231.50980392156862,209.50980392156862,-6.51,-60.79,31.56
31.95,-108.49019607843137,-280.5098039215686,301.5098039215686,-12.21,-58.65,3.1
32.0,295.01960784313724,-263.5098039215686,316.5098039215686,5.1,-51.97,-21.7
32.05,279.01960784313724,264.0,-264.0,-6.61,-30.97,-46.38
32.1,216.01960784313727,166.0,-141.0,100.02,-50.11,-70.98
32.15,-299.4901960784314,281.0,-33.0,-45.39,-28.69,-51.28
32.2,-165.98039215686273,101.0,-141.0,-34.61,-5.49,-41.37
32.25,-22.980392156862745,-274.0,-203.0,-115.29,28.28,-18.38
32.3,25.019607843137255,183.0,267.01960784313724,-52.25,-30.13,1.28
32.35,2.5098039215686274,183.0,193.50980392156862,29.88,-17.0,14.86
32.4,311.01960784313724,226.49019607843138,239.50980392156862,43.88,-1.18,-9.1
32.45,295.01960784313724,-165.50980392156862,-233.0,3.63,-0.9,-18.87
32.5,-172.49019607843138,101.0,-203.0,28.9,2.73,-7.98
32.55,-315.4901960784314,-198.50980392156862,-264.0,-21.21,9.1,-21.49
32.6,295.01960784313724,-78.0,-295.0,20.15,5.6,-20.86
32.65,168.01960784313727,84.0,224.50980392156862,-13.09,22.05,6.99
32.7,-299.4901960784314,248.0,-6.490196078431373,18.93,27.89,15.39
32.75,216.01960784313727,199.0,132.50980392156862,-30.66,15.78,38.77
32.8,263.01960784313724,-111.0,-264.0,-77.21,9.59,40.62
32.85,216.01960784313727,133.0,239.50980392156862,-78.15,-17.14,53.75
32.9,-220.49019607843138,-198.50980392156862,-95.0,-69.09,-30.65,52.59
32.95,-236.49019607843138,-67.50980392156863,43.0,-119.24,-25.86,33.24
33.0,-220.49019607843138,215.0,-172.0,-242.06,4.44,10.07
33.05,-252.49019607843138,133.0,-126.0,-95.27,10.99,9.89
33.1,65.50980392156863,-318.01960784313724,-98.49019607843137,-83.65,-43.74,29.11
33.15,247.01960784313727,-231.50980392156862,166.0,-56.03,-71.5,57.42
33.2,-252.49019607843138,-182.50980392156862,73.0,36.39,-93.93,63.09
33.25,-252.49019607843138,79.49019607843137,243.0,45.6,-108.6,70.16
33.3,-108.49019607843137,-35.509803921568626,196.0,59.0,-102.58,69.29
33.35,-140.49019607843138,30.49019607843137,289.0,62.85,-79.06,57.84
33.4,-45.490196078431374,-100.50980392156863,89.0,102.89,-98.13,45.14
33.45,288.5098039215686,-220.01960784313727,273.0,155.6,-85.74,44.61
33.5,208.50980392156862,-220.01960784313727,-203.0,168.8,-79.86,36.95
33.55,193.50980392156862,-236.01960784313727,-279.0,190.57,-71.25,29.18
33.6,224.50980392156862,-204.01960784313727,-233.0,190.29,-82.77,0.41
33.65,129.50980392156862,144.49019607843138,-233.0,183.71,-85.36,-14.84
33.7,208.50980392156862,-214.50980392156862,58.0,119.8,-91.34,-22.58
33.75,-243.0,-247.50980392156862,43.0,97.33,-86.79,-22.79
33.8,-179.0,-231.50980392156862,-218.0,87.67,-97.78,-35.04
33.85,224.50980392156862,-51.509803921568626,-280.0,79.2,-126.8,-33.39
33.9,81.50980392156863,-133.50980392156862,58.0,65.09,-136.91,-23.56
33.95,-77.49019607843137,-214.50980392156862,-64.0,63.17,-113.22,-11.34
34.0,295.01960784313724,-280.5098039215686,301.5098039215686,53.75,-80.56,-5.88
34.05,231.01960784313727,-263.5098039215686,147.50980392156862,28.8,-51.9,-6.76
34.1,279.01960784313724,-280.5098039215686,147.50980392156862,41.43,-28.94,-7.95
34.15,-299.4901960784314,-165.50980392156862,193.50980392156862,63.03,-43.74,-3.33
34.2,-220.49019607843138,-18.50980392156863,-310.0,65.69,-44.9,-4.03
34.25,311.01960784313724,-116.50980392156863,-310.0,28.66,-21.48,-1.47
34.3,216.01960784313727,-182.50980392156862,-264.0,39.26,2.2,8.42
34.35,-315.4901960784314,-280.5098039215686,255.50980392156862,14.17,16.41,0.55
34.4,-220.49019607843138,-312.5098039215686,255.50980392156862,11.09,27.54,-0.6
34.45,-283.4901960784314,-247.50980392156862,-295.0,6.71,26.25,-3.43
34.5,311.01960784313724,-198.50980392156862,-187.0,20.64,12.14,-5.99
34.55,-220.49019607843138,-296.5098039215686,-233.0,20.99,1.54,-15.19
34.6,-267.4901960784314,-263.5098039215686,-218.0,16.72,2.76,-26.78
34.65,-236.49019607843138,-247.50980392156862,-264.0,6.96,1.61,-36.19
34.7,-236.49019607843138,-312.5098039215686,-233.0,14.66,-4.16,-39.24
34.75,-188.49019607843138,-231.50980392156862,-295.0,13.57,0.03,-40.29
34.8,-252.49019607843138,-214.50980392156862,-279.0,8.6,11.02,-46.45
34.85,279.01960784313724,297.0,-218.0,-1.05,17.39,-55.3
34.9,152.01960784313727,215.0,-233.0,-12.35,10.6,-57.3
34.95,57.01960784313726,150.0,-279.0,4.75,-2.55,-14.28
35.0,311.01960784313724,-45.0,163.50980392156862,-29.75,18.76,-2.7
35.05,-299.4901960784314,-62.0,239.50980392156862,-33.07,16.17,-5.64
35.1,-204.49019607843138,3.0,270.5098039215686,-25.2,9.03,-1.75
35.15,-156.49019607843138,84.0,-203.0,-8.36,-7.06,-0.46
35.2,-140.49019607843138,150.0,-233.0,-3.22,-21.24,1.49
35.25,-156.49019607843138,199.0,-310.0,-0.1,-24.21,1.35
35.3,-220.49019607843138,150.0,209.50980392156862,-3.67,-17.88,7.3
35.35,-204.49019607843138,117.0,132.50980392156862,2.58,-15.5,5.87
35.4,-283.4901960784314,215.0,101.50980392156863,4.75,-20.64,-4.62
35.45,263.01960784313724,199.0,163.50980392156862,17.98,-30.86,-15.12
35.5,184.01960784313727,264.0,239.50980392156862,9.09,-10.81,-1.37
35.55,88.01960784313725,264.0,255.50980392156862,26.21,-7.73,32.22
35.6,231.01960784313727,84.0,-310.0,26.45,-1.01,33.17
35.65,184.01960784313727,35.0,301.5098039215686,26.07,1.92,40.38
35.7,231.01960784313727,-45.0,-295.0,25.3,-0.38,40.59
35.75,-236.49019607843138,-13.0,-279.0,15.25,1.43,35.44
35.8,-220.49019607843138,35.0,-203.0,29.11,-11.4,40.27
35.85,-252.49019607843138,232.0,-187.0,25.12,-36.78,62.32
35.9,-267.4901960784314,-312.5098039215686,-218.0,-21.31,-51.2,84.83
35.95,295.01960784313724,-263.5098039215686,-279.0,-16.52,-25.58,53.29
36.0,200.01960784313727,281.0,209.50980392156862,-10.22,1.68,32.43
36.05,247.01960784313727,-182.50980392156862,-279.0,5.31,29.71,3.7
36.1,295.01960784313724,-263.5098039215686,-172.0,-20.16,56.52,-14.04
36.15,-299.4901960784314,-263.5098039215686,43.0,0.24,31.5,4.57
36.2,-188.49019607843138,-280.5098039215686,43.0,15.81,16.94,4.54
36.25,-93.49019607843137,-280.5098039215686,-64.0,-21.14,37.41,-10.33
36.3,-188.49019607843138,199.0,-126.0,-20.19,33.21,-18.9
36.35,-156.49019607843138,264.0,301.5098039215686,-12.84,18.48,-18.73
36.4,-108.49019607843137,-263.5098039215686,255.50980392156862,-18.51,9.52,-19.04
36.45,-93.49019607843137,-296.5098039215686,193.50980392156862,-22.78,-2.93,-14.53
36.5,-108.49019607843137,-263.5098039215686,178.50980392156862,-21.91,-11.75,-13.69
36.55,-93.49019607843137,-263.5098039215686,209.50980392156862,-10.18,-17.07,-20.93
36.6,-236.49019607843138,-214.50980392156862,-310.0,-7.17,-28.41,-35.21
36.65,-299.4901960784314,-231.50980392156862,-249.0,20.54,-38.25,-58.31
36.7,263.01960784313724,-263.5098039215686,-264.0,14.97,-20.36,-50.44
36.75,184.01960784313727,199.0,-233.0,19.59,-15.74,-46.52
36.8,200.01960784313727,166.0,316.5098039215686,2.93,3.5,-35.14
36.85,136.01960784313727,84.0,-264.0,12.87,1.89,-6.62
36.9,216.01960784313727,117.0,-233.0,5.59,11.2,2.12
36.95,311.01960784313724,101.0,-233.0,-6.96,18.37,-3.61
37.0,-283.4901960784314,84.0,-172.0,-10.32,20.47,-8.79
37.05,-252.49019607843138,150.0,-172.0,-6.51,14.94,-8.75
37.1,-283.4901960784314,232.0,-141.0,-10.85,16.62,-13.27
37.15,295.01960784313724,215.0,-172.0,-18.27,20.86,-14.49
37.2,247.01960784313727,199.0,-279.0,-26.21,26.35,-18.48
37.25,231.01960784313727,150.0,301.5098039215686,-56.21,34.3,-39.62
37.3,25.019607843137255,183.0,-310.0,-33.67,31.46,-0.04
37.35,200.01960784313727,19.0,224.50980392156862,-21.94,23.94,19.31
37.4,-124.49019607843137,-62.0,147.50980392156862,-67.16,34.89,-5.71
37.45,-315.4901960784314,-62.0,-310.0,-50.78,14.38,-10.29
37.5,-172.49019607843138,68.0,-279.0,-37.97,1.64,-7.42
37.55,-156.49019607843138,150.0,-279.0,-40.74,-3.56,-10.05
37.6,-140.49019607843138,166.0,-310.0,-24.08,-20.15,-10.92
37.65,-108.49019607843137,183.0,239.50980392156862,-9.94,-26.42,-5.64
37.7,-124.49019607843137,183.0,193.50980392156862,-16.8,-18.61,-3.08
37.75,-172.49019607843138,166.0,178.50980392156862,-10.39,-28.87,-38.01
37.8,168.01960784313727,-263.5098039215686,270.5098039215686,-0.77,-20.64,-16.63
37.85,25.019607843137255,264.0,-233.0,22.53,-24.35,11.19
37.9,231.01960784313727,84.0,286.5098039215686,-10.08,6.72,3.77
37.95,152.01960784313727,-45.0,-264.0,-2.17,7.77,10.45
38.0,200.01960784313727,-62.0,-295.0,11.02,6.26,8.88
38.05,279.01960784313724,3.0,-218.0,2.69,11.65,3.14
38.1,-315.4901960784314,19.0,-187.0,-9.97,20.16,-1.37
38.15,-315.4901960784314,101.0,-172.0,-9.94,22.19,-1.65
38.2,311.01960784313724,232.0,-187.0,-9.55,23.34,2.33
38.25,311.01960784313724,264.0,-203.0,-21.63,35.8,4.5
38.3,311.01960784313724,199.0,286.5098039215686,-34.26,39.86,-19.95
38.35,279.01960784313724,166.0,224.50980392156862,-35.7,33.67,-26.6
38.4,247.01960784313727,52.0,178.50980392156862,-57.71,40.67,-9.17
38.45,-236.49019607843138,52.0,116.50980392156863,-55.68,28.17,-2.24
38.5,-172.49019607843138,19.0,193.50980392156862,-59.32,14.7,-16.0
38.55,-188.49019607843138,117.0,163.50980392156862,-75.74,1.92,-11.73
38.6,-156.49019607843138,68.0,178.50980392156862,-98.28,3.67,-10.4
38.65,-108.49019607843137,68.0,209.50980392156862,-70.8,-9.13,-9.8
38.7,-108.49019607843137,232.0,224.50980392156862,-31.92,-26.31,-3.47
38.75,-61.490196078431374,281.0,209.50980392156862,-0.84,-44.16,-11.8
38.8,-61.490196078431374,297.0,239.50980392156862,-12.07,-28.66,-22.96
38.85,-267.4901960784314,-214.50980392156862,239.50980392156862,0.62,-26.8,-11.87
38.9,216.01960784313727,-280.5098039215686,-233.0,27.89,-28.03,1.46
38.95,231.01960784313727,297.0,255.50980392156862,25.23,-12.98,4.71
39.0,295.01960784313724,150.0,224.50980392156862,18.72,0.8,10.35
39.05,279.01960784313724,68.0,301.5098039215686,18.37,4.27,13.5
39.1,-315.4901960784314,133.0,-264.0,36.74,1.29,20.78
39.15,-283.4901960784314,215.0,-218.0,42.03,1.43,29.63
39.2,-283.4901960784314,183.0,-172.0,41.75,5.49,27.04
39.25,-315.4901960784314,215.0,-279.0,40.59,14.66,18.05
39.3,-252.49019607843138,215.0,-279.0,38.98,21.52,6.25
39.35,-283.4901960784314,232.0,316.5098039215686,26.77,32.09,1.74
39.4,-236.49019607843138,101.0,301.5098039215686,21.13,25.02,-5.11
39.45,-252.49019607843138,183.0,-295.0,27.33,18.3,-12.39
39.5,-267.4901960784314,297.0,209.50980392156862,34.08,15.36,-11.06
39.55,-315.4901960784314,297.0,-295.0,69.08,7.8,-10.36
39.6,311.01960784313724,281.0,286.5098039215686,48.08,5.07,-16.14
39.65,-267.4901960784314,117.0,-264.0,16.34,3.74,-24.78
39.7,-252.49019607843138,19.0,-249.0,15.29,-6.26,-30.84
39.75,-267.4901960784314,52.0,-310.0,18.79,-21.66,-35.63
39.8,-188.49019607843138,-111.0,255.50980392156862,-119.03,-67.44,50.25
39.85,54.03921568627451,-73.01960784313725,276.078431372549,66.98,-23.9,46.99
39.9,76.98039215686275,-252.49019607843138,86.50980392156863,153.99,-31.36,-13.06
39.95,-16.470588235294116,-312.5098039215686,-203.0,-58.48,11.86,-20.41
40.0,-22.980392156862745,-143.0,-310.0,-41.89,-4.54,-13.69
40.05,65.50980392156863,150.0,224.50980392156862,-42.77,13.33,12.69
40.1,-172.49019607843138,248.0,-175.49019607843138,-80.36,4.58,24.8
40.15,311.01960784313724,-45.0,178.50980392156862,8.5,-37.83,23.3
40.2,-315.4901960784314,297.0,-233.0,-4.69,-39.47,28.69
40.25,231.01960784313727,101.0,301.5098039215686,10.84,-33.14,7.06
40.3,-299.4901960784314,-263.5098039215686,255.50980392156862,3.56,-16.48,9.19
40.35,-267.4901960784314,183.0,178.50980392156862,-12.11,-2.69,9.4
40.4,-299.4901960784314,133.0,209.50980392156862,-14.59,4.02,7.58
40.45,-299.4901960784314,232.0,209.50980392156862,-11.09,15.92,1.53
40.5,-283.4901960784314,117.0,193.50980392156862,-18.09,22.01,0.62
40.55,-299.4901960784314,199.0,224.50980392156862,-10.18,19.04,-4.48
40.6,-283.4901960784314,248.0,270.5098039215686,-8.15,14.35,-6.23
40.65,-299.4901960784314,183.0,163.50980392156862,-10.01,13.68,-2.07
40.7,-267.4901960784314,232.0,316.5098039215686,-15.29,14.84,-11.48
40.75,-315.4901960784314,232.0,270.5098039215686,-14.07,-14.83,-9.14
40.8,263.01960784313724,-263.5098039215686,-172.0,15.04,-53.44,-0.53
40.85,-283.4901960784314,-198.50980392156862,-187.0,19.07,-38.0,8.32
40.9,-299.4901960784314,297.0,-126.0,-25.83,39.47,26.52
40.95,-0.47058823529411764,150.0,5.019607843137255,26.59,-1.15,-4.13
41.0,-45.490196078431374,177.49019607843138,27.0,89.07,-5.63,-12.85
41.05,-77.49019607843137,166.0,270.5098039215686,15.43,-6.54,-15.54
41.1,231.01960784313727,-187.49019607843138,-67.49019607843137,-22.68,-17.07,-1.82
41.15,311.01960784313724,-62.0,-218.0,-42.28,44.13,-1.96
41.2,-156.49019607843138,-286.01960784313724,24.50980392156863,-11.69,14.52,-19.11
41.25,-61.490196078431374,-286.01960784313724,-18.0,-37.06,-8.18,-11.55
41.3,-93.49019607843137,84.0,270.5098039215686,-67.02,-11.37,1.56
41.35,-204.49019607843138,101.0,239.50980392156862,-6.37,0.94,10.35
41.4,-140.49019607843138,166.0,166.0,62.68,-30.58,27.99
41.45,145.50980392156862,264.0,320.0,12.49,-19.63,31.31
41.5,-283.4901960784314,-143.0,255.50980392156862,20.12,-30.41,28.34
41.55,-283.4901960784314,68.0,-233.0,-43.01,0.7,4.61
41.6,247.01960784313727,254.50980392156862,-298.4901960784314,-4.44,-27.61,22.84
41.65,216.01960784313727,193.49019607843138,-218.0,-30.17,-23.69,30.93
41.7,-267.4901960784314,-247.50980392156862,43.0,-1.15,-36.64,34.01
41.75,-252.49019607843138,-214.50980392156862,-3.0,48.5,-29.43,49.76
41.8,-124.49019607843137,-84.50980392156863,43.0,54.17,-36.15,37.82
41.85,-188.49019607843138,13.490196078431373,-79.0,-30.52,26.25,6.15
41.9,-70.98039215686275,215.0,-98.49019607843137,12.87,-26.49,2.26
41.95,-267.4901960784314,-149.50980392156862,12.0,-37.2,-20.15,-4.73
42.0,311.01960784313724,215.0,73.0,-32.37,-35.87,-13.48
42.05,184.01960784313727,183.0,-3.0,39.33,-56.31,-20.27
42.1,311.01960784313724,160.49019607843138,304.0,94.14,-85.11,6.11
42.15,-61.490196078431374,-18.50980392156863,107.49019607843137,89.03,-33.45,-36.82
42.2,311.01960784313724,52.0,227.0,-35.77,41.16,36.25
42.25,-48.470588235294116,-56.490196078431374,-313.4901960784314,1.53,-10.42,39.61
42.3,311.01960784313724,-62.0,147.50980392156862,-20.44,-10.35,16.89
42.35,311.01960784313724,-149.50980392156862,-307.5098039215686,-8.19,-23.23,29.98
42.4,-172.49019607843138,128.49019607843138,243.0,-8.22,-36.92,21.2
42.45,295.01960784313724,160.49019607843138,-215.50980392156862,29.11,-59.25,-15.96
42.5,240.50980392156862,-149.50980392156862,12.0,71.36,-43.71,-54.57
42.55,2.5098039215686274,30.49019607843137,-279.0,51.27,-47.49,-1.26
42.6,279.01960784313724,209.49019607843138,-161.52941176470588,-72.55,64.89,76.95
42.65,260.03921568627453,41.509803921568626,-144.49019607843138,2.06,13.12,-28.39
42.7,-20.0,-318.01960784313724,316.5098039215686,7.66,-4.47,-40.43
42.75,320.5098039215686,-198.50980392156862,43.0,142.51,-72.83,13.5
42.8,-172.49019607843138,-280.5098039215686,-203.0,-209.23,113.75,79.65
42.85,165.0392156862745,-252.49019607843138,236.01960784313727,173.7,-51.52,-6.27
42.9,-52.0,275.4901960784314,150.0,-52.15,91.35,-18.97
42.95,63.529411764705884,183.0,-295.0,78.85,32.02,11.54
43.0,-165.98039215686273,-171.01960784313727,227.0,-40.84,91.7,0.55
43.05,142.52941176470588,183.0,-49.0,-164.29,117.74,3.77
43.1,-213.98039215686273,3.0,-64.0,-186.58,141.82,-21.98
43.15,-86.98039215686275,3.0,-218.0,-140.56,167.89,-40.46
43.2,200.01960784313727,-62.0,-95.0,1.36,129.57,-53.83
43.25,-108.49019607843137,101.0,-49.0,132.54,90.54,-63.0
43.3,-77.49019607843137,199.0,-110.0,186.89,54.63,-71.3
43.35,311.01960784313724,62.490196078431374,86.50980392156863,78.01,111.65,-35.35
43.4,200.01960784313727,62.490196078431374,-113.49019607843137,101.98,149.06,12.55
43.45,-124.49019607843137,30.49019607843137,-252.49019607843138,89.66,167.12,27.43
43.5,-77.49019607843137,-198.50980392156862,-160.49019607843138,96.1,162.99,22.6
43.55,-45.490196078431374,-231.50980392156862,-52.490196078431374,73.07,149.9,14.97
43.6,81.50980392156863,264.0,55.509803921568626,60.44,116.97,4.29
43.65,208.50980392156862,215.0,101.50980392156863,39.82,85.01,3.38
43.7,304.5098039215686,52.0,39.509803921568626,36.36,58.17,1.14
43.75,-195.0,19.0,39.509803921568626,27.64,40.42,-2.21
43.8,-131.0,-78.0,-98.49019607843137,27.99,26.25,-9.28
43.85,-84.0,-176.0,-267.4901960784314,28.76,12.14,-17.71
43.9,-20.0,-258.0,-283.4901960784314,40.17,-1.5,-32.17
43.95,-36.0,-209.0,-283.4901960784314,28.97,-1.22,-42.28
44.0,-100.0,303.5098039215686,-313.4901960784314,26.73,-9.69,-58.31
44.05,-84.0,-241.0,-283.4901960784314,26.1,-18.68,-69.51
44.1,-68.0,-307.0,-206.49019607843138,11.79,-29.22,-86.03
44.15,-20.0,319.5098039215686,-221.49019607843138,-28.66,-43.08,-110.29
44.2,-36.0,270.5098039215686,-206.49019607843138,-86.06,-40.42,-119.18
44.25,-116.0,286.5098039215686,-236.49019607843138,-35.14,-55.12,-81.62
44.3,-100.0,-274.0,-221.49019607843138,-31.22,-67.72,-74.27
44.35,-195.0,-290.0,-206.49019607843138,-17.95,-60.02,-66.68
44.4,304.5098039215686,-274.0,-298.4901960784314,-24.29,-45.98,-56.32
44.45,-290.0,286.5098039215686,252.01960784313727,-11.51,-39.37,-42.46
44.5,-227.0,270.5098039215686,282.01960784313724,-28.24,-32.33,-42.25
44.55,-243.0,254.50980392156862,-252.49019607843138,-57.99,-27.08,-47.67
44.6,-227.0,205.50980392156862,-175.49019607843138,-157.99,-29.57,-57.3
44.65,-259.0,270.5098039215686,-83.49019607843137,-214.86,-30.3,-71.93
44.7,304.5098039215686,-290.0,55.509803921568626,-185.15,-35.69,-82.15
44.75,240.50980392156862,-62.0,86.50980392156863,-132.12,-50.67,-105.28
44.8,113.50980392156863,133.0,-83.49019607843137,-140.63,-68.1,-126.88
44.85,2.5098039215686274,183.0,-160.49019607843138,-100.27,-101.49,-137.73
44.9,-156.49019607843138,-182.50980392156862,-267.4901960784314,-63.31,-112.94,-95.76
44.95,-204.49019607843138,-67.50980392156863,236.01960784313727,-35.7,-109.96,-60.55
45.0,-108.49019607843137,-100.50980392156863,313.01960784313724,1.53,-87.32,-48.51
45.05,-29.49019607843137,-149.50980392156862,-313.4901960784314,19.77,-44.93,-51.07
45.1,-77.49019607843137,-165.50980392156862,-252.49019607843138,-6.96,14.31,-48.55
45.15,-93.49019607843137,-247.50980392156862,-113.49019607843137,-58.48,42.59,-34.02
45.2,-93.49019607843137,-296.5098039215686,9.509803921568627,-73.04,50.22,-17.64
45.25,-108.49019607843137,-247.50980392156862,70.50980392156863,-59.99,51.94,4.33
45.3,-188.49019607843138,-231.50980392156862,132.50980392156862,-53.27,44.2,21.58
45.35,-188.49019607843138,-312.5098039215686,193.50980392156862,-44.52,24.92,31.87
45.4,-188.49019607843138,281.0,209.50980392156862,-32.76,11.65,23.37
45.45,-236.49019607843138,232.0,209.50980392156862,-20.65,7.87,4.54
45.5,-283.4901960784314,215.0,163.50980392156862,-21.28,-0.52,-38.19
45.55,311.01960784313724,133.0,147.50980392156862,-88.93,17.88,-80.4
45.6,-38.98039215686274,84.0,178.50980392156862,-39.62,-8.89,-39.55
45.65,-124.49019607843137,248.0,209.50980392156862,0.24,-22.25,-52.5
45.7,-45.490196078431374,199.0,86.50980392156863,-80.08,12.32,-75.18
45.75,-236.49019607843138,52.0,209.50980392156862,-76.75,5.46,-84.67
45.8,-29.49019607843137,199.0,178.50980392156862,-69.26,1.57,-88.97
45.85,-77.49019607843137,248.0,193.50980392156862,-46.44,-11.19,-76.72
45.9,-140.49019607843138,-296.5098039215686,116.50980392156863,-29.54,-16.51,-51.0
45.95,-124.49019607843137,313.0,116.50980392156863,-21.63,-22.32,-31.4
46.0,-93.49019607843137,281.0,70.50980392156863,-0.66,-28.06,-27.02
46.05,-140.49019607843138,313.0,-52.490196078431374,-10.01,-16.34,-20.02
46.1,-252.49019607843138,264.0,-6.490196078431373,18.93,-25.65,-22.72
46.15,-299.4901960784314,297.0,-52.490196078431374,49.87,3.32,4.47
46.2,152.01960784313727,-165.50980392156862,-267.4901960784314,88.47,32.06,42.13
46.25,247.01960784313727,-182.50980392156862,-52.490196078431374,39.68,71.96,68.94
46.3,200.01960784313727,264.0,178.50980392156862,-0.42,82.32,91.62
46.35,247.01960784313727,297.0,209.50980392156862,-6.58,74.06,109.71
46.4,295.01960784313724,-296.5098039215686,316.5098039215686,-9.34,59.71,118.25
46.45,-315.4901960784314,297.0,-233.0,-7.21,39.72,119.16
46.5,-267.4901960784314,297.0,-218.0,-8.12,15.5,107.05
46.55,-140.49019607843138,264.0,-187.0,14.24,-18.68,63.48
46.6,-93.49019607843137,215.0,-233.0,16.83,-31.35,20.04
46.65,-124.49019607843137,183.0,-310.0,7.97,-39.58,-27.65
46.7,-236.49019607843138,117.0,270.5098039215686,6.08,-50.39,-95.8
46.75,216.01960784313727,133.0,86.50980392156863,-36.5,-24.63,-99.44
46.8,72.01960784313725,150.0,70.50980392156863,14.48,-55.05,-88.55
46.85,-124.49019607843137,232.0,-98.49019607843137,-71.15,1.08,-100.42
46.9,247.01960784313727,52.0,-21.49019607843137,-138.98,32.79,-108.33
46.95,-315.4901960784314,68.0,147.50980392156862,-126.66,32.97,-107.59
47.0,-140.49019607843138,264.0,116.50980392156863,-79.45,26.63,-102.69
47.05,-93.49019607843137,-231.50980392156862,163.50980392156862,-44.06,7.17,-77.32
47.1,-108.49019607843137,-214.50980392156862,163.50980392156862,-16.13,-16.09,-59.33
47.15,-61.490196078431374,-214.50980392156862,209.50980392156862,24.81,-34.43,-46.38
47.2,-93.49019607843137,-182.50980392156862,116.50980392156863,31.77,-33.63,-23.0
47.25,-236.49019607843138,-182.50980392156862,39.509803921568626,36.39,-42.48,-1.68
47.3,-299.4901960784314,-214.50980392156862,55.509803921568626,94.07,-19.63,42.37
47.35,168.01960784313727,-67.50980392156863,-252.49019607843138,156.13,17.64,78.28
47.4,216.01960784313727,-35.509803921568626,-52.490196078431374,65.37,75.25,113.14
47.45,57.01960784313726,297.0,147.50980392156862,2.79,82.56,140.65
47.5,247.01960784313727,248.0,239.50980392156862,-0.7,78.47,144.75
47.55,263.01960784313724,-312.5098039215686,301.5098039215686,36.53,58.17,124.8
47.6,279.01960784313724,-280.5098039215686,-249.0,18.54,48.3,111.01
47.65,295.01960784313724,-312.5098039215686,-203.0,0.66,26.91,98.58
47.7,-220.49019607843138,232.0,-141.0,-17.32,5.28,75.83
47.75,-204.49019607843138,215.0,-126.0,-5.53,-21.87,47.55
47.8,-172.49019607843138,199.0,-172.0,12.73,-53.58,-13.06
47.85,-172.49019607843138,150.0,-249.0,33.14,-66.95,-89.15
47.9,168.01960784313727,166.0,132.50980392156862,-1.75,-60.89,-93.17
47.95,-299.4901960784314,84.0,116.50980392156863,60.89,-103.38,-93.77
48.0,-93.49019607843137,183.0,-236.49019607843138,-14.59,-47.0,-100.35
48.05,247.01960784313727,35.0,-221.49019607843138,-104.44,-7.59,-110.25
48.1,-236.49019607843138,3.0,9.509803921568627,-92.33,-2.86,-117.04
48.15,-156.49019607843138,248.0,24.50980392156863,-15.19,-6.12,-108.33
48.2,-188.49019607843138,-165.50980392156862,-36.490196078431374,24.0,-12.49,-80.05
48.25,-140.49019607843138,-182.50980392156862,24.50980392156863,12.21,-5.8,-39.2
48.3,-77.49019607843137,-231.50980392156862,39.509803921568626,23.13,2.06,-4.66
48.35,-172.49019607843138,-165.50980392156862,24.50980392156863,13.26,5.95,26.13
48.4,-236.49019607843138,-165.50980392156862,55.509803921568626,33.24,-2.83,46.61
48.45,279.01960784313724,-149.50980392156862,70.50980392156863,76.64,18.37,84.48
48.5,168.01960784313727,-67.50980392156863,-129.49019607843138,112.2,48.4,124.66
48.55,136.01960784313727,-149.50980392156862,147.50980392156862,26.77,82.46,150.63
48.6,-6.980392156862745,264.0,255.50980392156862,7.48,70.63,162.95
48.65,200.01960784313727,-312.5098039215686,316.5098039215686,15.36,52.71,162.18
48.7,216.01960784313727,-296.5098039215686,-218.0,36.04,34.44,147.76
48.75,279.01960784313724,-296.5098039215686,-187.0,19.28,18.3,132.81
48.8,295.01960784313724,281.0,-110.0,3.74,-10.77,105.79
48.85,-236.49019607843138,232.0,-79.0,4.58,-43.78,70.23
48.9,-140.49019607843138,199.0,-95.0,25.89,-73.77,30.89
48.95,-140.49019607843138,215.0,-203.0,73.21,-95.54,-13.9
49.0,-204.49019607843138,232.0,255.50980392156862,48.89,-82.31,-72.91
49.05,247.01960784313727,166.0,-6.490196078431373,18.05,-95.58,-81.24
49.1,-188.49019607843138,35.0,-21.49019607843137,5.66,-101.14,-93.28
49.15,-156.49019607843138,35.0,-221.49019607843138,12.14,-76.61,-105.14
49.2,311.01960784313724,117.0,-283.4901960784314,29.57,-60.68,-105.14
49.25,-252.49019607843138,215.0,-252.49019607843138,67.05,-43.25,-85.51
49.3,-140.49019607843138,-312.5098039215686,-236.49019607843138,77.17,-19.07,-47.53
49.35,-220.49019607843138,-214.50980392156862,-129.49019607843138,85.46,-3.35,3.21
49.4,-172.49019607843138,-133.50980392156862,-144.49019607843138,107.41,7.52,51.05
49.45,-108.49019607843137,-100.50980392156863,-52.490196078431374,118.29,21.8,81.75
49.5,-172.49019607843138,-165.50980392156862,70.50980392156863,125.19,24.18,106.42
49.55,-204.49019607843138,-198.50980392156862,224.50980392156862,114.76,19.53,120.81
49.6,-315.4901960784314,-214.50980392156862,-310.0,102.86,15.89,132.39
49.65,279.01960784313724,-214.50980392156862,-233.0,105.34,19.91,137.47
49.7,247.01960784313727,-182.50980392156862,-249.0,99.46,21.59,122.73
49.75,-315.4901960784314,-280.5098039215686,-141.0,86.97,20.79,49.06
49.8,263.01960784313724,84.0,-18.0,72.09,19.32,-1.23
49.85,200.01960784313727,183.0,-141.0,35.87,20.02,-13.79
49.9,120.01960784313725,68.0,-141.0,17.98,-14.34,-12.43
49.95,247.01960784313727,35.0,-79.0,127.67,-62.33,5.94
50.0,231.01960784313727,264.0,-203.0,159.42,-52.18,12.27
50.05,247.01960784313727,84.0,-295.0,-168.98,34.72,42.34
50.1,-181.98039215686273,227.01960784313727,124.52941176470588,42.1,-17.35,29.7
50.15,-188.49019607843138,-51.509803921568626,-67.49019607843137,-6.65,-11.16,16.61
50.2,200.01960784313727,183.0,286.5098039215686,4.16,-22.46,-11.94
50.25,-188.49019607843138,117.0,9.509803921568627,49.1,-19.38,-26.15
50.3,-236.49019607843138,313.0,-83.49019607843137,42.69,-1.29,-8.16
50.35,216.01960784313727,-209.0,86.50980392156863,75.52,27.75,48.95
50.4,88.01960784313725,-143.0,116.50980392156863,-150.6,102.09,45.45
50.45,-38.98039215686274,-89.49019607843137,-313.4901960784314,-220.95,60.82,59.45
50.5,247.01960784313727,3.0,-252.49019607843138,-0.91,-56.48,56.65
50.55,104.01960784313725,73.98039215686275,-310.0,-148.15,-28.97,29.25
50.6,104.01960784313725,166.0,-110.0,-114.94,11.4,4.92
50.65,-124.49019607843137,-258.0,209.50980392156862,-35.45,-17.63,-26.08
50.7,288.5098039215686,215.0,86.50980392156863,-6.4,-45.04,1.81
50.75,247.01960784313727,30.49019607843137,89.0,-39.23,-30.41,40.9
50.8,216.01960784313727,248.0,239.50980392156862,40.17,-47.49,66.35
50.85,-220.49019607843138,193.49019607843138,-141.0,83.4,-55.71,80.45
50.9,-275.0,95.49019607843137,-203.0,38.56,-40.35,-26.11
50.95,-283.4901960784314,-263.5098039215686,-172.0,-117.49,-8.81,9.68
51.0,-188.49019607843138,133.0,104.0,36.32,11.06,20.18
51.05,-45.490196078431374,73.98039215686275,-52.490196078431374,61.77,-11.33,44.23
51.1,-299.4901960784314,-18.50980392156863,135.0,78.5,-45.42,73.21
51.15,-93.49019607843137,258.4901960784314,150.0,117.77,-61.56,89.24
51.2,240.50980392156862,62.490196078431374,-172.0,134.67,-72.65,83.57
51.25,-179.0,111.49019607843137,-218.0,144.79,-63.38,50.46
51.3,18.50980392156863,-247.50980392156862,-144.49019607843138,99.39,-67.12,7.9
51.35,-77.49019607843137,133.0,267.01960784313724,53.23,-80.53,-20.27
51.4,34.509803921568626,199.0,-21.49019607843137,75.94,-79.41,-18.9
51.45,18.50980392156863,-35.509803921568626,193.50980392156862,57.71,-80.0,-1.37
51.5,113.50980392156863,79.49019607843137,-264.0,71.5,-94.98,8.46
51.55,-13.490196078431373,-67.50980392156863,-156.0,85.6,-141.04,9.89
51.6,-61.490196078431374,-214.50980392156862,301.5098039215686,-8.61,-85.32,-2.49
51.65,311.01960784313724,68.0,-160.49019607843138,-40.35,-25.12,-22.58
51.7,311.01960784313724,232.0,-236.49019607843138,-43.75,-22.08,-23.73
51.75,-13.490196078431373,-67.50980392156863,193.50980392156862,-22.22,-33.45,-20.69
51.8,-108.49019607843137,-100.50980392156863,-264.0,-13.96,-30.72,-27.09
51.85,-156.49019607843138,-84.50980392156863,-279.0,11.19,-30.97,-35.42
51.9,-156.49019607843138,-67.50980392156863,-295.0,37.62,-22.99,-49.04
51.95,-283.4901960784314,-165.50980392156862,316.5098039215686,47.66,-14.03,-69.37
52.0,231.01960784313727,-198.50980392156862,-295.0,45.91,1.01,-44.28
52.05,136.01960784313727,-263.5098039215686,-264.0,62.4,10.46,-34.37
52.1,168.01960784313727,232.0,-203.0,69.64,12.14,-31.12
52.15,136.01960784313727,199.0,-141.0,51.48,20.09,-20.02
52.2,136.01960784313727,101.0,-95.0,41.64,23.52,-4.76
52.25,279.01960784313724,35.0,-187.0,32.72,28.21,3.14
52.3,311.01960784313724,84.0,-141.0,20.96,32.37,-1.79
52.35,295.01960784313724,101.0,-172.0,3.7,33.74,-14.49
52.4,311.01960784313724,68.0,-249.0,6.43,23.03,-18.62
52.45,-267.4901960784314,133.0,316.5098039215686,-1.12,14.14,-24.36
52.5,-267.4901960784314,183.0,301.5098039215686,6.36,2.59,-26.04
52.55,263.01960784313724,215.0,270.5098039215686,3.28,2.2,-20.27
52.6,184.01960784313727,133.0,255.50980392156862,-28.98,0.98,-33.74
52.65,41.01960784313726,68.0,-310.0,-1.22,-7.73,-6.65
52.7,231.01960784313727,-13.0,101.50980392156863,-45.01,35.17,16.96
52.75,-283.4901960784314,-176.0,209.50980392156862,-51.13,29.47,9.96
52.8,-204.49019607843138,-111.0,301.5098039215686,-25.27,-5.21,-1.37
52.85,-156.49019607843138,-13.0,-264.0,-25.97,-10.67,-3.61
52.9,-156.49019607843138,-29.0,-233.0,-29.82,-9.23,5.8
52.95,-156.49019607843138,3.0,-264.0,-14.52,-25.89,13.67
53.0,-188.49019607843138,68.0,316.5098039215686,-6.72,-34.26,12.83
53.05,-188.49019607843138,84.0,224.50980392156862,-5.67,-32.12,9.58
53.1,-220.49019607843138,35.0,147.50980392156862,-12.28,-22.78,5.34
53.15,-236.49019607843138,35.0,86.50980392156863,-6.79,-25.3,2.37
53.2,295.01960784313724,117.0,193.50980392156862,9.13,-42.06,-6.58
53.25,216.01960784313727,183.0,255.50980392156862,2.79,-27.47,-17.22
53.3,41.01960784313726,215.0,301.5098039215686,8.88,-5.42,10.77
53.35,88.01960784313725,84.0,301.5098039215686,16.06,5.53,16.19
53.4,216.01960784313727,35.0,286.5098039215686,10.46,22.19,12.17
53.45,216.01960784313727,-13.0,-249.0,12.28,27.44,7.16
53.5,311.01960784313724,-13.0,-203.0,0.62,26.56,-5.5
53.55,-283.4901960784314,35.0,-172.0,-8.96,23.87,-16.38
53.6,-315.4901960784314,35.0,-141.0,-2.83,8.96,-23.24
53.65,-252.49019607843138,166.0,-249.0,1.01,3.22,-24.85
53.7,-252.49019607843138,215.0,301.5098039215686,-15.82,13.65,-33.22
53.75,311.01960784313724,183.0,209.50980392156862,-23.34,21.38,-34.41
53.8,231.01960784313727,199.0,209.50980392156862,-26.25,19.7,-38.75
53.85,184.01960784313727,166.0,239.50980392156862,-37.9,17.88,-33.85
53.9,57.01960784313726,150.0,-310.0,7.55,4.93,13.39
53.95,-315.4901960784314,-78.0,163.50980392156862,-51.24,31.74,-4.41
54.0,-252.49019607843138,-241.0,224.50980392156862,-49.94,25.72,-21.56
54.05,-204.49019607843138,-111.0,255.50980392156862,-19.0,5.95,-16.49
54.1,-172.49019607843138,19.0,-264.0,-14.7,-0.03,-7.95
54.15,-172.49019607843138,52.0,-264.0,-2.52,-13.57,5.06
54.2,-156.49019607843138,84.0,301.5098039215686,11.79,-19.42,13.85
54.25,-156.49019607843138,68.0,178.50980392156862,7.59,-17.56,18.54
54.3,-124.49019607843137,19.0,147.50980392156862,5.1,-16.65,13.04
54.35,-220.49019607843138,84.0,209.50980392156862,21.83,-27.47,13.71
54.4,279.01960784313724,117.0,193.50980392156862,17.14,-31.67,-1.51
54.45,72.01960784313725,166.0,301.5098039215686,49.69,-23.83,35.44
54.5,72.01960784313725,52.0,255.50980392156862,33.77,-0.69,40.03
54.55,184.01960784313727,19.0,178.50980392156862,25.86,14.59,38.31
54.6,200.01960784313727,-29.0,239.50980392156862,48.96,12.88,44.51
54.65,311.01960784313724,-13.0,316.5098039215686,37.72,15.96,26.48
54.7,311.01960784313724,-13.0,-203.0,39.3,13.68,13.04
54.75,-267.4901960784314,52.0,-203.0,38.53,10.04,4.26
54.8,-204.49019607843138,183.0,-233.0,40.63,8.22,-0.07
54.85,-267.4901960784314,232.0,-310.0,28.83,15.29,-6.09
54.9,311.01960784313724,215.0,301.5098039215686,30.34,19.04,-5.92
54.95,216.01960784313727,183.0,255.50980392156862,15.64,15.01,-20.58
55.0,88.01960784313725,68.0,224.50980392156862,20.68,13.54,-1.61
55.05,41.01960784313726,35.0,132.50980392156862,8.01,15.68,13.88
55.1,-252.49019607843138,-160.0,101.50980392156863,-20.09,24.04,-3.08
55.15,-267.4901960784314,-127.0,209.50980392156862,-8.54,9.24,1.74
55.2,-172.49019607843138,-13.0,-310.0,2.16,-5.14,4.89
55.25,-61.490196078431374,52.0,-249.0,12.8,-19.42,0.65
55.3,-77.49019607843137,117.0,-264.0,33.66,-37.09,2.09
55.35,-93.49019607843137,166.0,270.5098039215686,44.76,-40.56,11.75
55.4,-156.49019607843138,133.0,116.50980392156863,27.12,-22.15,17.07
55.45,-220.49019607843138,68.0,86.50980392156863,29.39,-22.78,21.06
55.5,-267.4901960784314,52.0,132.50980392156862,41.05,-40.56,14.44
55.55,-315.4901960784314,52.0,224.50980392156862,54.35,-58.44,-1.96
55.6,184.01960784313727,150.0,316.5098039215686,58.69,-38.35,26.31
55.65,9.019607843137255,84.0,-310.0,77.97,-24.11,41.11
55.7,247.01960784313727,-29.0,224.50980392156862,48.71,4.34,30.61
55.75,168.01960784313727,-29.0,-310.0,67.54,6.65,46.82
55.8,247.01960784313727,3.0,-233.0,76.19,10.88,54.97
55.85,311.01960784313724,68.0,-172.0,63.69,23.1,44.47
55.9,-283.4901960784314,101.0,-203.0,65.72,25.23,36.53
55.95,-283.4901960784314,183.0,-218.0,71.15,21.98,30.3
56.0,-283.4901960784314,215.0,-249.0,52.42,34.3,15.0
56.05,-315.4901960784314,101.0,270.5098039215686,40.03,42.52,12.87
56.1,263.01960784313724,101.0,209.50980392156862,46.47,38.95,5.55
56.15,216.01960784313727,199.0,116.50980392156863,35.17,30.17,-5.08
56.2,120.01960784313725,248.0,70.50980392156863,44.58,44.31,52.35
56.25,311.01960784313724,68.0,-52.490196078431374,62.71,51.69,70.37
56.3,-124.49019607843137,117.0,-52.490196078431374,42.62,54.32,76.15
56.35,-188.49019607843138,84.0,209.50980392156862,38.91,42.84,98.44
56.4,-140.49019607843138,150.0,224.50980392156862,40.8,33.95,101.45
56.45,-45.490196078431374,166.0,101.50980392156863,37.55,33.49,94.84
56.5,18.50980392156863,133.0,39.509803921568626,40.45,26.53,96.17
56.55,113.50980392156863,68.0,-52.490196078431374,24.07,24.99,106.0
56.6,145.50980392156862,35.0,-37.490196078431374,20.71,10.92,118.25
56.65,256.5098039215686,133.0,-21.49019607843137,-8.08,-3.35,92.49
56.7,81.50980392156863,35.0,-21.49019607843137,27.57,-52.07,101.1
56.75,304.5098039215686,-182.50980392156862,-160.49019607843138,8.36,-23.16,76.67
56.8,193.50980392156862,-241.0,206.01960784313727,35.24,-27.05,24.73
56.85,-61.490196078431374,-198.50980392156862,-298.4901960784314,-194.07,102.76,-20.55
56.9,184.01960784313727,166.0,-267.4901960784314,-259.84,87.95,-43.79
56.95,81.50980392156863,248.0,-295.0,-276.18,74.65,-77.67
57.0,97.50980392156863,264.0,58.0,-119.35,53.48,-136.15
57.05,129.50980392156862,-263.5098039215686,-203.0,-16.45,3.39,-187.18
57.1,113.50980392156863,-296.5098039215686,-64.0,-75.53,5.6,-160.86
57.15,-77.49019607843137,-35.509803921568626,-64.0,-9.27,-19.1,-116.59
57.2,-77.49019607843137,-253.01960784313727,-172.0,-12.11,-28.55,-107.84
57.25,65.50980392156863,-35.509803921568626,-172.0,-18.93,-36.5,-101.15
57.3,65.50980392156863,-198.50980392156862,-172.0,-39.65,-40.0,-95.87
57.35,-29.49019607843137,-280.5098039215686,-141.0,9.37,-54.1,-86.1
57.4,-220.49019607843138,-133.50980392156862,-295.0,-2.9,-46.89,-57.44
57.45,295.01960784313724,-280.5098039215686,-264.0,1.74,-38.42,-34.76
57.5,295.01960784313724,248.0,-172.0,39.09,-33.59,-12.71
57.55,168.01960784313727,264.0,-249.0,26.24,-18.37,0.06
57.6,72.01960784313725,133.0,-80.0,-16.87,1.47,10.7
57.65,72.01960784313725,52.0,-49.0,37.65,-0.73,3.94
57.7,120.01960784313725,68.0,-18.0,25.58,-17.0,5.59
57.75,72.01960784313725,117.0,104.0,-56.07,-5.84,10.66
57.8,168.01960784313727,-45.0,89.0,47.52,-15.71,-9.17
57.85,200.01960784313727,101.0,-3.0,-94.57,-13.5,-21.04
57.9,295.01960784313724,-225.0,-279.0,32.12,-13.71,-15.82
57.95,88.01960784313725,232.0,-187.0,-104.26,-2.69,-15.33
58.0,88.01960784313725,101.0,-49.0,-12.46,7.66,-2.77
58.05,-6.980392156862745,215.0,-18.0,79.93,-17.25,-17.96
58.1,247.01960784313727,-100.50980392156863,-80.0,1.81,21.49,-8.75
58.15,184.01960784313727,-160.0,-123.50980392156863,8.25,-3.18,-4.8
58.2,-267.4901960784314,150.0,-187.0,-14.56,-4.4,-11.24
58.25,216.01960784313727,215.0,-49.0,-1.05,-10.25,2.79
58.3,247.01960784313727,84.0,-280.0,-29.71,13.58,11.64
58.35,152.01960784313727,52.0,135.0,-4.9,-1.22,17.91
58.4,216.01960784313727,183.0,89.0,35.27,-9.27,5.31
58.45,311.01960784313724,199.0,150.0,34.47,-21.76,9.58
58.5,-267.4901960784314,-62.0,43.0,20.29,-21.87,6.18
58.55,311.01960784313724,215.0,120.0,13.99,-24.74,1.25
58.6,-299.4901960784314,52.0,73.0,7.24,-24.49,5.59
58.65,247.01960784313727,101.0,150.0,-8.61,-16.16,5.1
58.7,295.01960784313724,297.0,104.0,-11.2,-17.81,6.08
58.75,-315.4901960784314,183.0,73.0,-1.71,17.18,-1.19
58.8,295.01960784313724,150.0,104.0,-3.74,0.7,2.19
58.85,-188.49019607843138,183.0,-49.0,-5.56,-0.62,0.93
58.9,263.01960784313724,117.0,89.0,22.85,-1.85,-3.19
58.95,247.01960784313727,35.0,273.0,28.41,-8.67,-2.7
59.0,-283.4901960784314,-62.0,196.0,11.86,-3.14,5.2
59.05,200.01960784313727,-29.0,181.0,23.48,-12.28,-3.22
59.1,216.01960784313727,84.0,89.0,9.23,-17.67,4.12
59.15,-108.49019607843137,52.0,120.0,-1.54,-6.54,-3.19
59.2,-140.49019607843138,199.0,120.0,0.31,-22.46,-4.24
59.25,-45.490196078431374,183.0,-64.0,0.31,-7.24,-4.8
59.3,-156.49019607843138,215.0,-3.0,-1.82,0.14,-3.99
59.35,-299.4901960784314,199.0,-33.0,-16.41,1.96,3.84
59.4,279.01960784313724,199.0,-33.0,-36.5,27.05,-0.67
59.45,231.01960784313727,297.0,119.0,0.38,10.81,5.27
59.5,295.01960784313724,313.0,-3.0,-26.0,18.48,3.24
59.55,295.01960784313724,183.0,150.0,-28.31,30.62,-5.01
59.6,231.01960784313727,264.0,150.0,-15.05,17.71,6.64
59.65,-267.4901960784314,84.0,27.0,-24.74,15.12,31.94
59.7,200.01960784313727,133.0,181.0,-26.0,11.23,18.57
59.75,-108.49019607843137,215.0,-79.0,-69.61,54.42,45.73
59.8,317.52941176470586,-94.0,319.0,-44.48,27.96,28.27
59.85,-283.4901960784314,-214.50980392156862,-18.0,-16.8,15.33,9.65
59.9,-172.49019607843138,-165.50980392156862,135.0,-9.13,4.51,11.19
59.95,-140.49019607843138,248.0,-79.0,-10.25,3.15,20.29
60.0,-204.49019607843138,281.0,-18.0,-13.02,6.89,5.31
60.05,-315.4901960784314,150.0,73.0,-12.25,11.9,4.71
60.1,-188.49019607843138,-214.50980392156862,-3.0,1.22,4.76,16.16
60.15,-315.4901960784314,-312.5098039215686,-49.0,-16.73,14.28,22.81
60.2,184.01960784313727,248.0,120.0,-13.09,8.78,22.46
60.25,295.01960784313724,-198.50980392156862,-79.0,9.93,-4.82,-29.12
60.3,231.01960784313727,248.0,-187.0,7.2,2.03,-5.81
60.35,-108.49019607843137,-198.50980392156862,-141.0,11.96,1.82,-23.31
60.4,-315.4901960784314,-67.50980392156863,-33.0,-12.6,21.87,-12.71
60.45,-315.4901960784314,172.50980392156862,-49.0,-25.06,31.22,-10.05
60.5,-220.49019607843138,281.0,243.0,-1.89,7.03,23.12
60.55,-299.4901960784314,-214.50980392156862,-172.0,31.07,-12.8,12.1
60.6,-172.49019607843138,-263.5098039215686,-33.0,75.35,-36.43,-38.5
60.65,-283.4901960784314,111.49019607843137,73.0,164.95,-57.75,-45.64
60.7,-188.49019607843138,232.0,301.5098039215686,88.05,-47.1,-16.84
60.75,-48.470588235294116,73.98039215686275,166.0,88.86,-24.0,0.65
60.8,-220.49019607843138,-45.0,89.0,-60.41,32.16,20.57
60.85,-101.98039215686275,62.490196078431374,-33.0,0.66,15.4,30.12
60.9,-86.98039215686275,-296.5098039215686,-156.0,-17.39,25.02,19.45
60.95,-197.98039215686273,52.0,58.0,-104.02,21.14,-9.21
61.0,-133.98039215686273,-62.0,58.0,-114.97,4.48,-48.34
61.05,-101.98039215686275,35.0,89.0,-108.29,18.48,-85.86
61.1,-117.98039215686275,35.0,43.0,-32.02,30.52,-102.66
61.15,57.01960784313726,248.0,-3.0,3.88,29.15,-97.93
61.2,295.01960784313724,281.0,-110.0,-6.82,61.81,-90.2
61.25,279.01960784313724,264.0,-203.0,-19.14,105.03,-61.08
61.3,-252.49019607843138,313.0,-218.0,-68.98,147.45,-29.93
61.35,-267.4901960784314,297.0,-295.0,-105.94,189.94,31.14
61.4,-252.49019607843138,281.0,301.5098039215686,-80.85,201.28,84.41
61.45,-220.49019607843138,-198.50980392156862,239.50980392156862,-88.93,214.93,131.24
61.5,311.01960784313724,-149.50980392156862,147.50980392156862,-55.37,196.0,176.21
61.55,-315.4901960784314,-149.50980392156862,224.50980392156862,-39.55,187.07,190.6
61.6,-315.4901960784314,-214.50980392156862,39.509803921568626,19.56,155.12,192.73
61.65,-172.49019607843138,-182.50980392156862,-52.490196078431374,1.22,148.36,174.57
61.7,-188.49019607843138,-296.5098039215686,-67.49019607843137,-3.25,123.06,155.25
61.75,161.50980392156862,248.0,-36.490196078431374,33.63,78.33,145.52
61.8,-4.0,215.0,-298.4901960784314,9.02,71.85,128.75
61.85,233.0,183.0,298.01960784313724,-21.52,65.69,141.88
61.9,-123.50980392156863,150.0,206.01960784313727,5.38,53.3,160.6
61.95,35.490196078431374,-263.5098039215686,159.01960784313727,-7.84,61.28,179.64
62.0,-154.50980392156862,-280.5098039215686,-298.4901960784314,-13.23,55.19,194.45
62.05,-75.50980392156863,-312.5098039215686,-98.49019607843137,-47.56,26.63,193.99
62.1,-123.50980392156863,84.0,178.50980392156862,-67.69,-4.89,182.13
62.15,-59.509803921568626,-13.0,147.50980392156862,-76.79,-38.35,160.6
62.2,-170.50980392156862,-94.0,209.50980392156862,-81.9,-72.02,126.97
62.25,265.0,-307.0,209.50980392156862,-63.21,-96.21,52.38
62.3,-36.0,303.5098039215686,24.50980392156863,-70.38,-96.0,-3.78
62.35,-259.0,172.50980392156862,-175.49019607843138,-32.83,-13.75,-56.88
62.4,193.50980392156862,-290.0,-221.49019607843138,-7.56,32.58,-44.24
62.45,-84.0,-127.0,98.01960784313725,4.54,37.03,-44.52
62.5,106.0,35.0,-190.49019607843138,15.32,26.49,-31.61
62.55,-313.5098039215686,35.0,-236.49019607843138,-33.84,27.86,-12.74
62.6,297.0,-94.0,-190.49019607843138,-31.78,43.01,16.79
62.65,-234.50980392156862,19.0,298.01960784313724,14.59,35.1,39.12
62.7,-218.50980392156862,68.0,-129.49019607843138,-28.98,38.39,41.78
62.75,-250.50980392156862,286.5098039215686,-252.49019607843138,136.28,15.75,58.23
62.8,-43.509803921568626,117.0,-67.49019607843137,40.42,39.06,41.6
62.85,-154.50980392156862,58.509803921568626,-67.49019607843137,82.7,46.93,18.47
62.9,115.49019607843137,-160.0,-113.49019607843137,36.67,75.7,-17.05
62.95,4.490196078431373,-7.490196078431373,-98.49019607843137,19.87,57.22,-100.56
63.0,-11.509803921568627,-105.49019607843137,-249.0,-90.02,-29.74,-208.74
63.05,131.49019607843138,96.01960784313725,73.0,164.14,-147.17,-226.31
63.1,178.49019607843138,303.5098039215686,209.50980392156862,-173.77,-241.25,-102.97
63.15,290.4901960784314,-116.50980392156863,178.50980392156862,-194.8,-312.61,18.4
63.2,51.490196078431374,-84.50980392156863,-221.49019607843138,-48.79,-89.7,100.23
63.25,-100.0,161.01960784313727,-160.49019607843138,23.76,-41.19,68.97
63.3,154.0,-307.0,-301.98039215686276,-30.06,8.22,71.11
63.35,58.0,-89.49019607843137,236.01960784313727,-19.53,31.74,56.58
63.4,106.0,107.50980392156863,190.01960784313727,-29.29,37.8,57.95
63.45,138.0,41.509803921568626,-283.4901960784314,-2.9,30.45,56.02
63.5,106.0,123.50980392156863,-313.4901960784314,-11.62,31.01,53.89
63.55,58.0,90.50980392156863,-267.4901960784314,-12.25,29.75,50.32
63.6,42.0,139.50980392156862,-283.4901960784314,-3.74,24.6,48.36
63.65,11.0,221.50980392156862,-267.4901960784314,-42.56,22.29,49.3
63.7,-20.0,221.50980392156862,-160.49019607843138,-62.82,-11.37,58.19
63.75,-52.0,-241.0,-83.49019607843137,-110.6,-31.74,74.33
63.8,-163.0,-192.0,24.50980392156863,-114.24,-73.35,78.46
63.85,-306.0,-45.0,9.509803921568627,-113.01,-119.69,66.0
63.9,208.50980392156862,19.0,-67.49019607843137,-134.99,-146.15,70.76
63.95,-13.490196078431373,19.0,-206.49019607843138,-97.44,-181.99,73.42
64.0,-267.4901960784314,166.0,190.01960784313727,-133.63,-130.61,29.88
64.05,25.019607843137255,-45.0,36.01960784313726,-153.79,-65.27,-9.03
64.1,136.01960784313727,-62.0,21.019607843137255,-160.23,-36.95,-24.89
64.15,-77.49019607843137,101.0,21.019607843137255,-102.41,-14.87,-28.49
64.2,-259.0,166.0,98.01960784313725,-47.32,17.57,-17.64
64.25,-20.0,172.50980392156862,-252.49019607843138,27.08,8.96,8.98
64.3,-179.0,19.0,236.01960784313727,104.89,-53.65,46.26
64.35,161.50980392156862,-280.5098039215686,-36.490196078431374,30.72,-77.1,69.57
64.4,216.01960784313727,-198.50980392156862,147.50980392156862,-2.38,-87.84,61.17
64.45,-315.4901960784314,-280.5098039215686,101.50980392156863,5.42,-36.53,34.99
64.5,-140.49019607843138,215.0,-113.49019607843137,37.76,-2.37,23.61
64.55,49.509803921568626,-182.50980392156862,-221.49019607843138,35.31,11.3,18.05
64.6,-124.49019607843137,-312.5098039215686,9.509803921568627,17.63,16.94,21.51
64.65,-124.49019607843137,281.0,-21.49019607843137,24.39,12.53,29.14
64.7,34.509803921568626,313.0,-52.490196078431374,42.2,5.77,56.34
64.75,-13.490196078431373,-198.50980392156862,-206.49019607843138,52.32,-21.76,74.54
64.8,-77.49019607843137,62.490196078431374,24.50980392156863,15.81,-7.87,57.98
64.85,-283.4901960784314,-214.50980392156862,-36.490196078431374,12.42,-19.56,60.22
64.9,81.50980392156863,297.0,178.50980392156862,31.56,-44.55,59.03
64.95,193.50980392156862,30.49019607843137,-264.0,41.89,-36.6,26.2
65.0,-77.49019607843137,13.490196078431373,193.50980392156862,-3.88,-10.98,2.65
65.05,295.01960784313724,-51.509803921568626,55.509803921568626,-23.27,-8.11,-6.2
65.1,-45.490196078431374,-100.50980392156863,224.50980392156862,-22.82,-9.27,-4.59
65.15,145.50980392156862,-84.50980392156863,178.50980392156862,-12.95,-6.54,-5.64
65.2,97.50980392156863,-133.50980392156862,116.50980392156863,-13.79,1.36,-12.32
65.25,-45.490196078431374,-116.50980392156863,-6.490196078431373,-6.89,-0.45,-12.43
65.3,2.5098039215686274,-84.50980392156863,-21.49019607843137,-3.67,-6.43,-6.55
65.35,34.509803921568626,-100.50980392156863,39.509803921568626,-5.04,-10.7,-2.91
65.4,65.50980392156863,-149.50980392156862,55.509803921568626,3.56,-5.98,-3.68
65.45,81.50980392156863,-116.50980392156863,-67.49019607843137,14.2,-1.01,-1.82
65.5,113.50980392156863,-133.50980392156862,-83.49019607843137,30.3,-0.83,7.09
65.55,145.50980392156862,-165.50980392156862,-83.49019607843137,82.45,-17.18,10.07
65.6,161.50980392156862,-198.50980392156862,-67.49019607843137,97.43,-51.79,19.13
65.65,-220.49019607843138,-116.50980392156863,9.509803921568627,59.84,-76.12,52.7
65.7,200.01960784313727,-198.50980392156862,55.509803921568626,75.63,-90.33,67.85
65.75,-29.49019607843137,101.0,116.50980392156863,124.77,-75.98,70.55
65.8,-93.49019607843137,-198.50980392156862,-206.49019607843138,120.04,-78.57,83.53
65.85,-124.49019607843137,-231.50980392156862,86.50980392156863,107.97,-86.93,102.33
65.9,113.50980392156863,-231.50980392156862,255.50980392156862,104.57,-103.66,125.88
65.95,272.5098039215686,-116.50980392156863,270.5098039215686,124.14,-121.09,126.76
66.0,272.5098039215686,62.490196078431374,239.50980392156862,120.18,-147.62,134.77
66.05,-61.490196078431374,-220.01960784313727,-218.0,92.99,-129.07,93.96
66.1,-283.4901960784314,111.49019607843137,239.50980392156862,133.06,-84.48,69.53
66.15,18.50980392156863,95.49019607843137,-221.49019607843138,153.54,-71.04,72.26
66.2,18.50980392156863,144.49019607843138,86.50980392156863,169.01,-67.65,60.36
66.25,81.50980392156863,-35.509803921568626,147.50980392156862,150.6,-36.15,20.6
66.3,129.50980392156862,-247.50980392156862,-52.490196078431374,106.6,26.81,-2.35
66.35,177.50980392156862,-182.50980392156862,-298.4901960784314,116.86,83.16,-48.16
66.4,177.50980392156862,95.49019607843137,252.01960784313727,-10.81,162.01,-6.27
66.45,81.50980392156863,-133.50980392156862,-298.4901960784314,-44.03,141.85,64.6
66.5,208.50980392156862,-286.01960784313724,39.509803921568626,-9.52,123.76,124.97
66.55,145.50980392156862,-236.01960784313727,55.509803921568626,-52.29,126.07,167.15
66.6,81.50980392156863,-220.01960784313727,-67.49019607843137,-88.13,126.52,185.07
66.65,161.50980392156862,-236.01960784313727,267.01960784313724,-12.6,87.36,184.51
66.7,193.50980392156862,46.490196078431374,-298.4901960784314,41.5,27.19,124.9
66.75,224.50980392156862,117.0,-21.49019607843137,108.11,-111.54,-41.83
66.8,177.50980392156862,139.50980392156862,-79.0,131.31,-309.57,-218.82
66.85,-61.490196078431374,161.01960784313727,104.0,-21.7,-57.85,-326.45
66.9,-197.98039215686273,276.01960784313724,227.0,-19.63,-19.63,-49.07
66.95,320.5098039215686,128.49019607843138,-24.980392156862745,-74.44,-18.3,-64.68
67.0,-116.0,-133.50980392156862,-36.490196078431374,-38.25,2.06,-46.52
67.05,-84.0,248.0,159.01960784313727,-13.47,-7.97,-42.04
67.1,-68.0,52.0,-160.49019607843138,-8.71,-44.79,-67.97
67.15,320.5098039215686,-274.0,-252.49019607843138,-7.07,-56.17,-58.87
67.2,208.50980392156862,68.0,313.01960784313724,-65.41,-105.8,-74.13
67.25,-108.49019607843137,-280.5098039215686,67.01960784313725,2.09,-14.83,-38.64
67.3,-61.490196078431374,-29.0,-190.49019607843138,-129.01,132.02,-6.97
67.35,-299.4901960784314,258.4901960784314,-59.470588235294116,-41.58,199.08,69.57
67.4,-131.0,-155.01960784313727,155.52941176470588,-64.57,252.35,172.4
67.45,-195.0,-138.01960784313727,-9.980392156862745,-107.03,228.86,252.93
67.5,320.5098039215686,73.98039215686275,252.01960784313727,-112.03,163.59,322.27
67.55,-275.0,89.98039215686275,132.50980392156862,-112.42,87.95,-307.72
67.6,-131.0,-89.01960784313725,-218.0,-61.74,-13.16,324.58
67.65,106.0,242.49019607843138,-80.0,-47.04,-63.13,260.77
67.7,233.0,-18.50980392156863,-233.0,-76.4,-85.99,194.13
67.75,-298.5098039215686,166.0,-249.0,-53.62,-107.76,125.78
67.8,281.0,35.0,-126.0,-75.46,-105.8,66.31
67.85,-36.0,-241.0,224.50980392156862,-73.74,-92.99,5.55
67.9,-195.0,221.50980392156862,-236.49019607843138,-47.0,-48.82,-51.45
67.95,-52.0,-225.0,-175.49019607843138,-30.03,19.04,-48.3
68.0,42.0,68.0,206.01960784313727,68.31,38.11,-37.0
68.05,-154.50980392156862,-182.50980392156862,313.01960784313724,48.33,20.16,-27.02
68.1,-43.509803921568626,133.0,-6.490196078431373,39.44,5.35,-26.78
68.15,-123.50980392156863,35.0,-67.49019607843137,12.21,-3.11,-38.08
68.2,-154.50980392156862,-94.0,-67.49019607843137,-6.65,3.39,-26.18
68.25,-186.50980392156862,3.0,-129.49019607843138,-4.16,8.22,-11.97
68.3,-139.50980392156862,117.0,-129.49019607843138,-29.29,3.32,6.53
68.35,-27.50980392156863,19.0,-221.49019607843138,-25.83,-14.59,23.96
68.4,194.49019607843138,117.0,-298.4901960784314,-25.55,0.91,21.16
68.45,51.490196078431374,-13.0,175.01960784313727,-19.39,1.5,21.3
68.5,67.49019607843137,84.0,-36.490196078431374,-46.55,-0.45,6.15
68.55,4.490196078431373,-78.0,9.509803921568627,-43.26,-15.11,6.46
68.6,115.49019607843137,117.0,9.509803921568627,-22.85,-16.93,8.53
68.65,-11.509803921568627,183.0,-6.490196078431373,-26.25,-13.82,3.8
68.7,-170.50980392156862,52.0,24.50980392156863,-42.38,-10.42,-5.99
68.75,-123.50980392156863,68.0,9.509803921568627,-51.69,-15.25,-6.48
68.8,-107.50980392156863,117.0,-36.490196078431374,-35.98,-5.87,1.98
68.85,-91.50980392156863,-296.5098039215686,-144.49019607843138,-9.41,6.79,-7.0
68.9,-75.50980392156863,-296.5098039215686,-283.4901960784314,0.76,5.84,-22.72
68.95,4.490196078431373,-214.50980392156862,-221.49019607843138,-17.74,21.91,-33.43
69.0,-123.50980392156863,-182.50980392156862,-298.4901960784314,-24.81,-5.42,-44.42
69.05,-75.50980392156863,-165.50980392156862,-67.49019607843137,-13.09,7.42,-46.48
69.1,-186.50980392156862,-149.50980392156862,-221.49019607843138,13.36,23.73,-45.43
69.15,-250.50980392156862,-51.509803921568626,-144.49019607843138,43.99,27.68,-36.86
69.2,-218.50980392156862,-263.5098039215686,-144.49019607843138,54.24,17.85,-28.95
69.25,-282.5098039215686,232.0,55.509803921568626,11.02,15.4,-14.25
69.3,-266.5098039215686,215.0,-52.490196078431374,38.98,8.47,-5.32
69.35,-218.50980392156862,-280.5098039215686,-83.49019607843137,6.4,0.98,7.41
69.4,-202.50980392156862,297.0,-98.49019607843137,39.02,3.53,24.14
69.45,-170.50980392156862,-296.5098039215686,-221.49019607843138,100.2,-8.08,56.51
69.5,-107.50980392156863,-149.50980392156862,252.01960784313727,273.97,-3.46,84.02
69.55,-75.50980392156863,-280.5098039215686,98.01960784313725,-229.03,41.37,111.01
69.6,-75.50980392156863,133.0,206.01960784313727,-313.63,70.45,75.31
69.65,35.490196078431374,-290.0,178.50980392156862,200.93,104.65,9.16
69.7,-123.50980392156863,-89.49019607843137,-264.0,-1.22,118.72,-47.6
69.75,-234.50980392156862,243.01960784313727,-79.0,-62.72,70.31,-80.29
69.8,-107.50980392156863,308.01960784313724,-18.0,-76.23,-0.84,-119.42
69.85,-75.50980392156863,-138.49019607843138,43.0,-40.7,-78.12,-164.57
69.9,-154.50980392156862,-56.490196078431374,-80.0,11.47,-146.68,-176.23
69.95,-202.50980392156862,270.5098039215686,-264.0,-19.95,-165.89,-191.07
70.0,249.0,-143.0,270.5098039215686,-60.76,-177.69,-231.04
70.05,122.0,-111.0,-156.0,-28.52,-154.38,-285.04
70.1,27.0,52.0,-295.0,72.3,-206.74,-309.54
70.15,-179.0,128.49019607843138,-98.49019607843137,50.74,-227.7,-258.83
70.2,161.50980392156862,13.490196078431373,-40.98039215686274,-32.37,-268.76,-294.35
70.25,129.50980392156862,166.0,190.01960784313727,-231.87,-206.6,-256.66
70.3,-315.4901960784314,-111.0,-298.4901960784314,-206.25,-149.79,-268.31
70.35,152.01960784313727,313.0,190.01960784313727,-99.5,-96.0,-293.86
70.4,152.01960784313727,-214.50980392156862,236.01960784313727,-32.97,-59.56,-265.83
70.45,41.01960784313726,-35.509803921568626,-298.4901960784314,-62.09,-34.71,-194.88
70.5,136.01960784313727,-149.50980392156862,-283.4901960784314,-108.64,-12.07,-113.12
70.55,295.01960784313724,-182.50980392156862,-206.49019607843138,-143.53,14.87,-16.21
70.6,-299.4901960784314,-84.50980392156863,9.509803921568627,-79.97,-4.23,16.58
70.65,-252.49019607843138,-2.5098039215686274,147.50980392156862,4.16,-18.23,50.74
70.7,216.01960784313727,226.49019607843138,-52.490196078431374,163.58,-56.66,97.11
70.75,-140.49019607843138,177.49019607843138,116.50980392156863,167.12,-18.05,139.22
70.8,200.01960784313727,13.490196078431373,162.50980392156862,52.0,32.09,183.18
70.85,184.01960784313727,215.0,224.50980392156862,-27.37,51.13,202.53
70.9,200.01960784313727,183.0,239.50980392156862,-64.92,43.57,190.56
70.95,279.01960784313724,183.0,224.50980392156862,-71.05,31.53,152.97
71.0,-315.4901960784314,117.0,301.5098039215686,-62.09,3.29,104.64
71.05,-124.49019607843137,35.0,-279.0,-19.04,-13.78,40.59
71.1,-315.4901960784314,35.0,-233.0,21.1,-63.73,-44.17
71.15,-315.4901960784314,68.0,-172.0,8.53,-66.63,-126.84
71.2,9.019607843137255,232.0,-95.0,-14.07,-110.0,-125.55
71.25,-252.49019607843138,-231.50980392156862,-203.0,34.5,-132.01,-97.62
71.3,184.01960784313727,-67.50980392156863,147.50980392156862,232.22,-16.44,-7.84
71.35,295.01960784313724,79.49019607843137,101.50980392156863,-217.73,59.64,86.19
71.4,-156.49019607843138,-312.5098039215686,109.52941176470588,-8.05,11.3,58.75
71.45,129.50980392156862,95.49019607843137,-129.49019607843138,133.34,-29.71,19.13
71.5,177.50980392156862,281.0,147.50980392156862,58.69,-44.37,-21.0
71.55,113.50980392156863,68.0,-187.0,-159.32,16.83,-22.09
71.6,-13.490196078431373,19.0,301.5098039215686,-31.11,-22.64,-72.03
71.65,311.01960784313724,144.49019607843138,-36.490196078431374,88.51,-26.59,-92.61
71.7,200.01960784313727,-165.50980392156862,-172.0,136.18,-52.04,-90.37
71.75,231.01960784313727,-100.50980392156863,286.5098039215686,127.95,-5.87,-66.19
71.8,-54.98039215686274,-182.50980392156862,-310.0,-22.22,49.63,-12.57
71.85,72.01960784313725,281.0,-203.0,-121.94,65.73,47.1
71.9,-283.4901960784314,166.0,-249.0,-146.05,68.81,64.32
71.95,-140.49019607843138,232.0,-203.0,-124.28,68.49,60.47
72.0,-140.49019607843138,281.0,-141.0,-61.88,54.98,14.9
72.05,-140.49019607843138,297.0,-141.0,-66.15,62.44,-31.57
72.1,-315.4901960784314,199.0,-49.0,-85.54,53.06,-49.81
72.15,311.01960784313724,232.0,-33.0,-121.24,34.3,-71.68
72.2,247.01960784313727,264.0,27.0,-188.75,4.27,-68.71
72.25,-267.4901960784314,281.0,73.0,-125.82,-64.08,-78.86
72.3,-252.49019607843138,-149.50980392156862,58.0,95.26,-74.89,-53.03
72.35,200.01960784313727,46.490196078431374,-126.0,233.44,-135.62,-24.64
72.4,-236.49019607843138,13.490196078431373,-33.0,12.56,-109.23,-20.06
72.45,-252.49019607843138,-13.0,-64.0,-54.49,-4.09,9.93
72.5,-252.49019607843138,-296.5098039215686,282.01960784313724,126.41,-71.32,-2.14
72.55,311.01960784313724,-198.50980392156862,-21.49019607843137,20.78,-18.09,10.66
72.6,193.50980392156862,3.0,30.49019607843137,57.25,-36.32,25.12
72.65,295.01960784313724,-84.50980392156863,-246.50980392156862,106.6,-46.93,29.0
72.7,-299.4901960784314,-84.50980392156863,243.0,0.13,-1.99,23.89
72.75,247.01960784313727,35.0,-79.0,71.04,-5.94,60.71
72.8,136.01960784313727,242.49019607843138,-80.0,4.96,-13.19,38.52
72.85,231.01960784313727,-247.50980392156862,-261.5098039215686,29.53,-4.68,50.32
72.9,279.01960784313724,-198.50980392156862,-307.5098039215686,6.57,-54.14,23.89
72.95,-267.4901960784314,-2.5098039215686274,227.0,-49.73,-20.36,20.88
73.0,216.01960784313727,183.0,-49.0,12.94,-58.02,-7.21
73.05,-93.49019607843137,-100.50980392156863,-64.0,42.48,-56.41,-14.39
73.1,-188.49019607843138,-214.50980392156862,73.0,59.32,-30.55,-11.8
73.15,247.01960784313727,-100.50980392156863,-3.0,65.34,-9.44,-1.4
73.2,295.01960784313724,-116.50980392156863,-126.0,72.72,-8.99,13.15
73.25,-140.49019607843138,-312.5098039215686,-218.0,-55.4,-12.59,-20.13
73.3,-220.49019607843138,281.0,270.5098039215686,-108.36,24.57,14.02
73.35,-188.49019607843138,183.0,-307.5098039215686,-111.3,115.6,-30.45
73.4,-299.4901960784314,-165.50980392156862,-141.0,-72.69,189.38,-18.03
73.45,-140.49019607843138,-231.50980392156862,286.5098039215686,-53.79,181.65,-7.81
73.5,81.50980392156863,62.490196078431374,-156.0,53.79,106.68,50.14
73.55,-61.490196078431374,242.49019607843138,27.0,101.91,37.03,66.28
73.6,-188.49019607843138,-302.01960784313724,258.0,153.43,-57.43,58.68
73.65,-283.4901960784314,46.490196078431374,258.0,165.16,-103.03,19.94
73.7,216.01960784313727,-84.50980392156863,304.0,-84.77,45.29,28.27
73.75,-213.98039215686273,133.0,-95.0,-27.26,-16.51,37.61
73.8,-299.4901960784314,-2.5098039215686274,-249.0,22.08,-4.96,11.75
73.85,168.01960784313727,193.49019607843138,-233.0,-75.21,22.01,30.65
73.9,-156.49019607843138,-247.50980392156862,286.5098039215686,-101.67,7.52,42.27
73.95,81.50980392156863,-2.5098039215686274,209.50980392156862,-16.27,38.71,35.37
74.0,-188.49019607843138,-67.50980392156863,-36.490196078431374,-145.81,63.28,33.45
74.05,-13.490196078431373,248.0,-218.0,38.04,33.49,40.2
74.1,-93.49019607843137,-204.01960784313727,-49.0,15.36,17.08,12.94
74.15,2.5098039215686274,79.49019607843137,-95.0,5.59,21.49,15.35
74.2,-124.49019607843137,-84.50980392156863,-187.0,-80.46,42.91,17.35
74.25,-156.49019607843138,-67.50980392156863,-218.0,2.34,12.11,14.9
74.3,208.50980392156862,291.4901960784314,-249.0,-46.51,26.07,4.05
74.35,97.50980392156863,-263.5098039215686,-3.0,-21.73,-21.34,-6.65
74.4,224.50980392156862,258.4901960784314,43.0,-86.97,17.22,5.03
74.45,81.50980392156863,226.49019607843138,-218.0,14.13,-23.44,14.2
74.5,256.5098039215686,242.49019607843138,-141.0,33.66,-5.77,9.51
74.55,-45.490196078431374,144.49019607843138,-141.0,47.35,-12.91,16.44
74.6,193.50980392156862,-302.01960784313724,-126.0,46.44,-23.86,15.53
74.65,-29.49019607843137,13.490196078431373,-172.0,45.32,-18.65,2.44
74.7,-45.490196078431374,242.49019607843138,-203.0,54.7,-14.87,-19.85
74.75,81.50980392156863,-116.50980392156863,-264.0,80.81,-25.82,-18.9
74.8,177.50980392156862,-35.509803921568626,178.50980392156862,74.58,-10.6,-22.79
74.85,161.50980392156862,144.49019607843138,55.509803921568626,-73.88,37.55,-40.32
74.9,81.50980392156863,13.490196078431373,-221.49019607843138,-122.85,37.76,-76.69
74.95,-163.0,-198.50980392156862,316.5098039215686,28.62,46.79,-79.52
75.0,304.5098039215686,193.49019607843138,166.0,216.36,-70.94,-39.73
75.05,-243.0,-204.01960784313727,-203.0,157.77,-80.46,-43.44
75.1,-156.49019607843138,-18.50980392156863,43.0,59.28,-57.92,-56.88
75.15,311.01960784313724,248.0,209.50980392156862,12.28,-43.25,39.08
75.2,-165.98039215686273,-187.01960784313727,316.5098039215686,-24.92,-23.97,-14.77
75.25,-299.4901960784314,-280.5098039215686,-310.0,30.27,-37.72,-18.13
75.3,-140.49019607843138,-165.50980392156862,255.50980392156862,120.01,-45.77,-23.28
75.35,-188.49019607843138,52.0,116.50980392156863,76.92,-36.74,19.2
75.4,231.01960784313727,-78.0,-218.0,2.69,-7.34,10.87
75.45,231.01960784313727,-62.0,239.50980392156862,-22.61,7.84,-5.25
75.5,295.01960784313724,232.0,101.50980392156863,-40.63,9.38,-2.84
75.55,311.01960784313724,281.0,255.50980392156862,-30.1,10.92,7.2
75.6,-267.4901960784314,297.0,316.5098039215686,-43.54,4.86,6.99
75.65,-252.49019607843138,-263.5098039215686,-310.0,29.92,17.88,15.46
75.7,216.01960784313727,13.490196078431373,193.50980392156862,7.9,64.26,61.41
75.75,184.01960784313727,264.0,147.50980392156862,-11.86,80.46,43.49
75.8,200.01960784313727,215.0,86.50980392156863,0.62,64.15,20.99
75.85,216.01960784313727,-209.0,-187.0,36.36,69.89,15.98
75.9,295.01960784313724,281.0,193.50980392156862,29.39,60.2,40.69
75.95,-299.4901960784314,30.49019607843137,255.50980392156862,-35.1,97.68,10.63
76.0,200.01960784313727,313.0,-36.490196078431374,-93.17,100.13,1.49
76.05,-204.49019607843138,-2.5098039215686274,-6.490196078431373,-145.91,109.09,-38.29
76.1,-267.4901960784314,-51.509803921568626,-67.49019607843137,-110.28,99.26,-56.81
76.15,-45.490196078431374,111.49019607843137,162.50980392156862,-78.68,105.59,-60.8
76.2,-13.490196078431373,128.49019607843138,301.5098039215686,-13.96,85.12,-49.56
76.25,208.50980392156862,160.49019607843138,-203.0,43.53,82.04,-30.28
76.3,193.50980392156862,177.49019607843138,193.50980392156862,62.71,91.0,-14.81
76.35,208.50980392156862,128.49019607843138,-36.490196078431374,79.44,87.6,-24.22
76.4,161.50980392156862,79.49019607843137,-160.49019607843138,58.16,84.0,-26.08
76.45,193.50980392156862,-100.50980392156863,-6.490196078431373,-2.06,96.91,-31.54
76.5,129.50980392156862,264.0,-113.49019607843137,3.07,117.35,-71.93
76.55,177.50980392156862,133.0,-83.49019607843137,-90.51,131.21,-100.14
76.6,-140.49019607843138,237.50980392156862,286.5098039215686,-2.94,107.66,-133.77
76.65,-259.0,-165.50980392156862,178.50980392156862,-13.09,112.52,-148.72
76.7,-211.0,150.0,147.50980392156862,-77.63,112.49,-150.96
76.75,-116.0,-182.50980392156862,209.50980392156862,-179.51,153.44,-117.85
76.8,-131.0,-247.50980392156862,209.50980392156862,-95.13,136.11,-133.81
76.85,122.0,226.49019607843138,-160.49019607843138,70.76,101.53,-159.53
76.9,-36.0,-236.01960784313727,-160.49019607843138,47.24,58.87,-153.2
76.95,-36.0,-318.01960784313724,-52.490196078431374,-7.59,73.04,-89.22
77.0,27.0,111.49019607843137,-21.49019607843137,4.65,80.04,-67.06
77.05,201.0,46.490196078431374,39.509803921568626,-0.63,96.63,-49.63
77.1,154.0,46.490196078431374,147.50980392156862,-36.78,105.38,-33.92
77.15,281.0,111.49019607843137,178.50980392156862,-100.24,91.98,-9.38
77.2,313.0,177.49019607843138,147.50980392156862,-146.79,46.02,45.52
77.25,-202.50980392156862,160.49019607843138,24.50980392156863,-162.75,-5.38,65.58
77.3,-139.50980392156862,30.49019607843137,163.50980392156862,-125.44,-48.68,61.73
77.35,-202.50980392156862,79.49019607843137,-21.49019607843137,-121.62,-69.12,30.09
77.4,233.0,-116.50980392156863,301.5098039215686,-13.26,-53.12,-21.18
77.45,27.0,-286.01960784313724,301.5098039215686,-166.14,15.36,-60.17
77.5,-131.0,160.49019607843138,178.50980392156862,-89.84,18.3,-42.21
77.55,-266.5098039215686,236.98039215686273,-187.0,50.81,20.33,-1.44
77.6,-68.0,89.98039215686275,270.5098039215686,21.45,40.49,-6.27
77.65,-100.0,307.4901960784314,-80.0,54.73,80.5,11.96
77.7,-163.0,-204.01960784313727,224.50980392156862,20.82,75.74,5.59
77.75,-4.0,-182.50980392156862,89.0,22.88,49.59,9.72
77.8,281.0,226.49019607843138,119.0,47.21,42.0,4.99
77.85,265.0,177.49019607843138,-110.0,25.3,40.0,-4.52
77.9,74.0,160.49019607843138,286.5098039215686,31.77,26.49,-4.83
77.95,90.0,128.49019607843138,270.5098039215686,8.81,7.73,18.12
78.0,-234.50980392156862,-302.01960784313724,-79.0,-85.43,-13.71,25.26
78.05,-202.50980392156862,-138.01960784313727,-3.0,63.41,-36.39,45.84
78.1,-186.50980392156862,285.98039215686276,-206.49019607843138,46.75,-59.6,16.68
78.15,154.0,226.49019607843138,12.0,44.37,-47.35,-18.73
78.2,58.0,226.49019607843138,-80.0,48.29,-44.09,4.5
78.25,201.0,307.4901960784314,58.0,64.22,-40.0,15.84
78.3,138.0,160.49019607843138,301.5098039215686,114.3,-42.69,14.55
78.35,217.0,-51.509803921568626,-36.490196078431374,142.76,-37.41,15.53
78.4,265.0,-84.50980392156863,-313.4901960784314,73.14,-46.37,26.2
78.45,-170.50980392156862,95.49019607843137,-295.0,229.77,-71.01,-14.7
78.5,-298.5098039215686,307.4901960784314,-310.0,167.85,-16.97,-52.64
78.55,-20.0,-35.509803921568626,193.50980392156862,4.75,62.72,-68.74
78.6,-163.0,-263.5098039215686,-6.490196078431373,61.21,114.31,-90.02
78.65,-179.0,160.49019607843138,313.01960784313724,-151.09,116.62,-46.76
78.7,106.0,-67.50980392156863,236.01960784313727,-154.77,96.56,-35.28
78.75,320.5098039215686,144.49019607843138,298.01960784313724,315.2,102.69,3.24
78.8,-36.0,-280.5098039215686,-203.0,-179.65,97.08,23.3
78.85,138.0,226.49019607843138,-187.0,176.43,70.28,51.33
78.9,-186.50980392156862,-253.01960784313727,86.50980392156863,98.45,79.06,13.18
78.95,-234.50980392156862,-312.5098039215686,-310.0,65.2,88.97,-10.92
79.0,-202.50980392156862,-2.5098039215686274,-221.49019607843138,139.96,49.7,26.94
79.05,-107.50980392156863,13.490196078431373,-221.49019607843138,91.41,22.4,26.66
79.1,-59.509803921568626,-231.50980392156862,-6.490196078431373,56.1,-10.6,22.14
79.15,-27.50980392156863,-198.50980392156862,9.509803921568627,-61.81,-27.85,55.08
79.2,178.49019607843138,-280.5098039215686,116.50980392156863,-19.25,-50.25,76.04
79.25,4.490196078431373,226.49019607843138,-160.49019607843138,-47.18,-53.72,49.06
79.3,-91.50980392156863,-116.50980392156863,9.509803921568627,17.53,-66.95,25.29
79.35,-123.50980392156863,-35.509803921568626,132.50980392156862,56.94,-54.0,1.81
79.4,201.0,215.0,-21.49019607843137,-9.97,-2.76,-29.37
79.45,-313.5098039215686,264.0,86.50980392156863,-39.65,-5.0,-53.87
79.5,-170.50980392156862,150.0,39.509803921568626,-182.7,11.23,-41.62
79.55,297.0,62.490196078431374,178.50980392156862,-199.6,20.93,-22.89
79.6,-202.50980392156862,-67.50980392156863,70.50980392156863,-49.77,22.57,0.62
79.65,-123.50980392156863,-269.01960784313724,162.50980392156862,185.7,16.31,-8.09
79.7,-91.50980392156863,-253.01960784313727,-175.49019607843138,-88.72,73.29,-53.03
79.75,-186.50980392156862,-133.50980392156862,-298.4901960784314,25.75,71.71,-41.13
79.8,186.0,-253.01960784313727,313.01960784313724,1.11,42.0,-51.07
79.85,42.0,-133.50980392156862,-233.0,-94.78,58.06,-63.11
79.9,186.0,-182.50980392156862,9.509803921568627,-62.89,69.51,-24.15
79.95,122.0,258.4901960784314,224.50980392156862,-96.7,69.51,-39.2
80.0,265.0,-214.50980392156862,-64.0,0.0,65.87,7.3
80.05,-313.5098039215686,-187.01960784313727,86.50980392156863,-42.28,77.24,-33.46
80.1,233.0,-198.50980392156862,-264.0,45.32,33.81,-7.39
80.15,-91.50980392156863,258.4901960784314,270.5098039215686,32.61,13.47,27.71
80.2,35.490196078431374,-73.01960784313725,9.509803921568627,-44.41,-13.05,-2.98
80.25,67.49019607843137,275.4901960784314,-141.0,-100.59,-35.1,-16.63
80.3,-91.50980392156863,307.4901960784314,-110.0,-130.55,-34.85,-23.91
80.35,-154.50980392156862,-302.01960784313724,104.0,-139.33,-14.1,-24.82
80.4,249.0,226.49019607843138,73.0,-87.39,-0.55,-24.01
80.45,217.0,79.49019607843137,-33.0,-112.49,17.6,-25.69
80.5,154.0,-67.50980392156863,89.0,-121.41,36.01,-31.68
80.55,58.0,-35.509803921568626,243.0,-83.75,38.18,-17.5
80.6,42.0,144.49019607843138,-276.5098039215686,-51.66,42.0,-8.02
80.65,-36.0,128.49019607843138,-199.50980392156862,-37.59,43.4,-2.49
80.7,-84.0,193.49019607843138,-30.50980392156863,-31.22,70.0,-6.9
80.75,-84.0,-318.01960784313724,-122.50980392156863,-60.72,81.41,-24.43
80.8,-100.0,209.49019607843138,184.49019607843138,-11.72,67.83,-12.11
80.85,-52.0,-236.01960784313727,-107.50980392156863,6.5,58.87,-5.88
80.9,-20.0,258.4901960784314,-92.50980392156863,14.97,64.78,15.11
80.95,-131.0,242.49019607843138,-215.50980392156862,4.82,65.34,20.04
81.0,-20.0,95.49019607843137,-215.50980392156862,6.57,61.81,12.62
81.05,11.0,-2.5098039215686274,-230.50980392156862,-11.23,56.1,4.12
81.1,11.0,30.49019607843137,-169.50980392156862,-19.95,26.91,-5.29
81.15,74.0,95.49019607843137,-30.50980392156863,2.23,3.25,-8.09
81.2,74.0,177.49019607843138,-138.50980392156862,-5.91,-3.35,-7.53
81.25,58.0,226.49019607843138,46.490196078431374,-10.92,-4.86,-28.25
81.3,42.0,193.49019607843138,77.49019607843137,24.53,-47.03,-52.68
81.35,42.0,242.49019607843138,246.49019607843138,57.01,-70.83,-52.78
81.4,-36.0,242.49019607843138,30.49019607843137,49.66,-78.95,-37.03
81.45,-195.0,177.49019607843138,261.4901960784314,82.87,-81.93,-0.7
81.5,-211.0,226.49019607843138,15.490196078431373,55.64,-72.09,14.37
81.55,-147.0,-2.5098039215686274,-199.50980392156862,63.17,-49.76,14.2
81.6,-163.0,-35.509803921568626,289.0,46.33,-14.62,4.96
81.65,-195.0,-35.509803921568626,304.0,-11.86,10.29,-9.28
81.7,-306.0,-84.50980392156863,-276.5098039215686,5.0,36.26,-16.63
81.75,272.5098039215686,209.49019607843138,243.0,36.15,57.54,-37.73
81.8,208.50980392156862,144.49019607843138,273.0,97.26,119.0,-75.57
81.85,145.50980392156862,258.4901960784314,43.0,113.08,153.16,-129.96
81.9,-45.490196078431374,193.49019607843138,73.0,124.84,130.76,-147.7
81.95,65.50980392156863,128.49019607843138,-18.0,125.82,101.64,-148.72
82.0,-61.490196078431374,111.49019607843137,58.0,17.84,103.88,-127.79
82.05,-220.49019607843138,-302.01960784313724,27.0,-14.45,88.9,-92.75
82.1,2.5098039215686274,160.49019607843138,58.0,-12.74,70.98,-74.62
82.15,49.509803921568626,291.4901960784314,-64.0,-23.03,42.56,-52.85
82.2,161.50980392156862,177.49019607843138,-64.0,-3.95,5.88,-26.57
82.25,240.50980392156862,307.4901960784314,-203.0,76.82,-31.32,-1.33
82.3,304.5098039215686,-220.01960784313727,-280.0,74.89,-34.26,12.83
82.35,129.50980392156862,-269.01960784313724,-310.0,216.92,-51.86,45.94
82.4,18.50980392156863,-73.01960784313725,147.50980392156862,-308.83,-73.46,96.34
82.45,-61.490196078431374,-40.01960784313726,209.50980392156862,294.2,-46.23,124.8
82.5,-299.4901960784314,307.4901960784314,178.50980392156862,214.93,-3.42,150.03
82.55,-299.4901960784314,-2.5098039215686274,132.50980392156862,128.97,37.41,146.01
82.6,-236.49019607843138,-247.50980392156862,163.50980392156862,78.67,49.98,105.97
82.65,-188.49019607843138,-280.5098039215686,163.50980392156862,38.74,55.89,78.74
82.7,-188.49019607843138,215.0,-295.0,-9.03,41.86,57.88
82.75,-124.49019607843137,183.0,-295.0,-18.16,16.03,28.76
82.8,-140.49019607843138,199.0,270.5098039215686,-32.2,-20.64,-14.81
82.85,-124.49019607843137,68.0,270.5098039215686,-0.07,-41.26,-55.09
82.9,-188.49019607843138,68.0,86.50980392156863,-19.18,-56.66,-106.33
82.95,279.01960784313724,-13.0,-36.490196078431374,-103.49,-50.15,-111.97
83.0,311.01960784313724,-111.0,9.509803921568627,-31.92,-76.43,-135.98
83.05,-93.49019607843137,84.0,-190.49019607843138,7.2,-57.18,-150.57
83.1,-283.4901960784314,117.0,-236.49019607843138,-77.59,-39.09,-157.64
83.15,-236.49019607843138,52.0,9.509803921568627,-132.79,-20.08,-157.57
83.2,-252.49019607843138,133.0,101.50980392156863,-77.66,-11.09,-139.76
83.25,-204.49019607843138,-214.50980392156862,24.50980392156863,-11.41,-27.89,-104.62
83.3,-93.49019607843137,-182.50980392156862,-21.49019607843137,25.51,-24.81,-56.84
83.35,-93.49019607843137,-198.50980392156862,-144.49019607843138,-14.38,-8.22,-16.91
83.4,-267.4901960784314,-247.50980392156862,-113.49019607843137,-19.98,-12.56,17.84
83.45,-252.49019607843138,-280.5098039215686,-83.49019607843137,48.64,10.36,64.32
83.5,152.01960784313727,-67.50980392156863,-298.4901960784314,157.35,5.91,106.07
83.55,-267.4901960784314,-67.50980392156863,-144.49019607843138,121.16,58.66,138.59
83.6,41.01960784313726,313.0,-21.49019607843137,97.82,82.88,161.3
83.65,136.01960784313727,297.0,116.50980392156863,72.86,96.98,173.9
83.7,184.01960784313727,199.0,178.50980392156862,64.99,100.9,173.2
83.75,136.01960784313727,232.0,224.50980392156862,26.63,91.91,160.15
83.8,216.01960784313727,150.0,316.5098039215686,13.78,69.26,145.52
83.85,-267.4901960784314,150.0,-295.0,0.55,44.97,122.21
83.9,-188.49019607843138,117.0,-295.0,0.13,16.55,97.74
83.95,-61.490196078431374,150.0,224.50980392156862,0.87,0.38,69.74
84.0,65.50980392156863,166.0,86.50980392156863,-2.1,-29.99,8.11
84.05,49.509803921568626,215.0,-129.49019607843138,-26.11,-13.5,34.6
84.1,49.509803921568626,248.0,267.01960784313724,16.58,-39.65,10.59
84.15,-259.0,-296.5098039215686,282.01960784313724,22.04,-12.63,27.22
84.2,208.50980392156862,-247.50980392156862,129.01960784313727,-6.09,5.74,28.65
84.25,-306.0,-312.5098039215686,-252.49019607843138,-3.11,3.92,46.54
84.3,-84.0,-214.50980392156862,-267.4901960784314,21.06,-2.34,75.66
84.35,-52.0,-84.50980392156863,-160.49019607843138,31.28,-11.26,105.65
84.4,11.0,-51.509803921568626,-221.49019607843138,56.97,-10.0,128.82
84.45,-68.0,128.49019607843138,-283.4901960784314,29.64,-4.68,153.53
84.5,-52.0,128.49019607843138,282.01960784313724,40.87,-24.32,138.87
84.55,11.0,-318.01960784313724,313.01960784313724,96.35,-42.34,180.73
84.6,-36.0,-220.01960784313727,282.01960784313724,102.54,-35.31,167.11
84.65,-68.0,209.49019607843138,-206.49019607843138,115.56,-32.02,141.63
84.7,-52.0,111.49019607843137,-206.49019607843138,113.57,-21.62,103.2
84.75,-179.0,-35.509803921568626,-98.49019607843137,122.04,-19.35,65.33
84.8,-290.0,-247.50980392156862,-144.49019607843138,115.56,-23.65,42.34
84.85,-306.0,166.0,101.50980392156863,98.38,-36.57,30.47
84.9,-306.0,-78.0,-6.490196078431373,163.16,-51.86,22.7
84.95,320.5098039215686,-13.0,-83.49019607843137,122.04,-39.93,33.66
85.0,208.50980392156862,-225.0,-175.49019607843138,45.53,-25.86,56.65
85.05,193.50980392156862,123.50980392156863,-190.49019607843138,12.52,-13.05,70.27
85.1,65.50980392156863,237.50980392156862,-298.4901960784314,-28.87,13.12,77.3
85.15,97.50980392156863,205.50980392156862,236.01960784313727,-56.91,30.34,108.56
85.2,240.50980392156862,-160.0,159.01960784313727,44.72,7.87,55.18
85.25,-116.0,-23.49019607843137,-313.4901960784314,40.0,1.05,73.73
85.3,304.5098039215686,237.50980392156862,-190.49019607843138,138.87,-13.96,63.86
85.35,-259.0,-94.0,-221.49019607843138,219.34,-9.79,57.14
85.4,272.5098039215686,-307.0,282.01960784313724,169.43,-13.22,3.28
85.45,49.509803921568626,-56.490196078431374,193.50980392156862,-107.83,31.01,10.7
85.5,129.50980392156862,227.01960784313727,-52.490196078431374,-164.43,48.33,8.53
85.55,113.50980392156863,74.50980392156863,252.01960784313727,-153.37,57.47,5.1
85.6,-68.0,254.50980392156862,298.01960784313724,44.55,-6.51,-10.36
85.65,-4.0,-209.0,9.509803921568627,-24.29,-31.04,-7.6
85.7,-100.0,41.509803921568626,-67.49019607843137,60.68,-20.96,11.4
85.75,161.50980392156862,-258.0,67.01960784313725,91.34,-7.87,-11.24
85.8,129.50980392156862,319.5098039215686,267.01960784313724,132.82,-28.76,36.81
85.85,97.50980392156863,-301.4901960784314,-144.49019607843138,44.58,-7.87,-0.28
85.9,304.5098039215686,90.50980392156863,-221.49019607843138,65.06,-22.5,-2.7
85.95,-306.0,58.509803921568626,-129.49019607843138,-40.56,-10.28,-5.29
86.0,-306.0,205.50980392156862,-236.49019607843138,-238.0,24.04,-9.28
86.05,208.50980392156862,-89.49019607843137,-313.4901960784314,-267.43,64.22,29.56
86.1,-195.0,205.50980392156862,-267.4901960784314,185.91,-9.58,-42.0
86.15,-84.0,-133.50980392156862,-283.4901960784314,101.49,-19.59,-35.42
86.2,-116.0,58.509803921568626,116.50980392156863,-2.9,-56.83,-16.59
86.25,256.5098039215686,-121.49019607843137,24.50980392156863,182.2,-22.18,-15.61
86.3,-93.49019607843137,232.0,113.01960784313725,189.48,-20.82,3.56
86.35,304.5098039215686,-170.49019607843138,-52.490196078431374,64.18,-21.83,1.04
86.4,-306.0,-72.49019607843137,-175.49019607843138,-79.03,30.9,6.04
86.45,240.50980392156862,-252.49019607843138,267.01960784313724,-170.2,37.73,-20.2
86.5,320.5098039215686,-40.490196078431374,-113.49019607843137,-91.7,14.0,-16.49
86.55,-131.0,74.50980392156863,224.50980392156862,46.51,-43.92,1.21
86.6,-68.0,-176.0,-52.490196078431374,127.29,-50.78,-6.02
86.65,208.50980392156862,205.50980392156862,282.01960784313724,-13.51,10.78,-0.88
86.7,-61.490196078431374,-301.4901960784314,236.01960784313727,149.02,-38.98,-8.89
86.75,-195.0,-225.0,-252.49019607843138,41.5,-12.56,-1.93
86.8,-275.0,-268.4901960784314,70.50980392156863,-30.13,12.63,-2.66
86.85,208.50980392156862,74.50980392156863,-221.49019607843138,-106.12,34.93,-5.11
86.9,240.50980392156862,-89.49019607843137,282.01960784313724,-70.87,36.88,-7.04
86.95,320.5098039215686,58.509803921568626,-160.49019607843138,0.03,-21.76,-1.4
87.0,-131.0,286.5098039215686,86.50980392156863,8.81,-29.81,0.62
87.05,304.5098039215686,123.50980392156863,-21.49019607843137,-34.54,-13.26,16.54
87.1,240.50980392156862,123.50980392156863,-160.49019607843138,14.2,1.4,6.99
87.15,224.50980392156862,74.50980392156863,-221.49019607843138,89.59,8.78,0.0
87.2,-306.0,-40.490196078431374,-236.49019607843138,1.39,3.36,-9.49
87.25,-259.0,-23.49019607843137,-113.49019607843137,-34.89,21.7,9.02
87.3,161.50980392156862,58.509803921568626,-267.4901960784314,-34.02,30.52,8.88
87.35,193.50980392156862,139.50980392156862,-221.49019607843138,23.69,-1.11,4.85
87.4,320.5098039215686,205.50980392156862,-175.49019607843138,-4.97,-6.96,2.02
87.45,320.5098039215686,25.50980392156863,-144.49019607843138,-5.42,-10.07,-0.14
87.5,288.5098039215686,25.50980392156863,-190.49019607843138,49.03,-13.08,13.95
87.55,113.50980392156863,254.50980392156862,-52.490196078431374,35.13,-3.14,-0.6
87.6,-179.0,-89.49019607843137,-83.49019607843137,19.98,-3.04,-9.24
87.65,320.5098039215686,90.50980392156863,-129.49019607843138,-0.7,16.55,-0.25
87.7,129.50980392156862,-7.490196078431373,-283.4901960784314,2.06,8.75,-1.82
87.75,304.5098039215686,74.50980392156863,-190.49019607843138,-3.57,-7.24,-0.07
87.8,-306.0,90.50980392156863,-113.49019607843137,1.25,-5.94,0.3
87.85,-275.0,41.509803921568626,-83.49019607843137,-44.66,-2.34,10.31
87.9,-243.0,90.50980392156863,-113.49019607843137,2.09,7.03,6.29
87.95,304.5098039215686,303.5098039215686,298.01960784313724,43.01,-0.83,9.75
88.0,320.5098039215686,41.509803921568626,-52.490196078431374,-17.95,7.84,-11.38
88.05,256.5098039215686,-105.49019607843137,-98.49019607843137,25.86,0.63,-10.96
88.1,208.50980392156862,205.50980392156862,-252.49019607843138,10.6,1.57,-8.89
88.15,288.5098039215686,-23.49019607843137,-129.49019607843138,-4.48,-3.11,-8.33
88.2,-275.0,58.509803921568626,-160.49019607843138,7.34,-3.6,-6.51
88.25,-290.0,90.50980392156863,-160.49019607843138,4.4,-2.97,-6.02
88.3,-259.0,58.509803921568626,-175.49019607843138,1.92,-6.85,-1.51
88.35,-275.0,58.509803921568626,-160.49019607843138,0.24,-3.28,-3.29
88.4,320.5098039215686,74.50980392156863,-190.49019607843138,4.12,-1.46,-1.82
88.45,320.5098039215686,74.50980392156863,-206.49019607843138,-0.7,-0.13,-0.7
88.5,-275.0,9.509803921568627,-144.49019607843138,-0.28,0.59,0.23
88.55,-290.0,9.509803921568627,-160.49019607843138,2.3,-0.38,1.81
88.6,-275.0,41.509803921568626,-175.49019607843138,5.52,-0.59,2.3
88.65,-290.0,74.50980392156863,-190.49019607843138,5.31,-0.66,3.7
88.7,-306.0,58.509803921568626,-190.49019607843138,10.63,0.21,5.73
88.75,320.5098039215686,58.509803921568626,-144.49019607843138,-5.84,3.57,2.23
88.8,-306.0,-7.490196078431373,-144.49019607843138,0.97,-1.67,0.51
88.85,-290.0,58.509803921568626,-160.49019607843138,-1.01,-1.85,0.69
88.9,320.5098039215686,58.509803921568626,-129.49019607843138,-2.45,1.82,0.27
88.95,320.5098039215686,58.509803921568626,-175.49019607843138,-1.99,0.7,1.0
89.0,320.5098039215686,41.509803921568626,-160.49019607843138,1.74,0.17,0.02
89.05,-290.0,25.50980392156863,-206.49019607843138,1.25,0.0,0.9
89.1,-306.0,58.509803921568626,-144.49019607843138,2.86,0.73,1.67
89.15,-306.0,58.509803921568626,-190.49019607843138,2.13,-0.45,0.93
89.2,320.5098039215686,41.509803921568626,-129.49019607843138,2.02,-2.2,-0.53
89.25,320.5098039215686,41.509803921568626,-129.49019607843138,1.67,-2.13,1.0
89.3,-306.0,9.509803921568627,-144.49019607843138,2.06,-1.39,1.7
89.35,-306.0,74.50980392156863,-160.49019607843138,1.25,-0.03,0.69
89.4,320.5098039215686,25.50980392156863,-160.49019607843138,2.34,-0.2,1.21
89.45,320.5098039215686,41.509803921568626,-144.49019607843138,-0.07,-0.73,0.09
89.5,-306.0,9.509803921568627,-144.49019607843138,1.6,0.07,2.51
89.55,320.5098039215686,25.50980392156863,-144.49019607843138,-2.27,1.5,1.11
89.6,320.5098039215686,25.50980392156863,-175.49019607843138,0.52,0.94,1.91
89.65,-306.0,41.509803921568626,-160.49019607843138,1.57,-0.38,1.67
89.7,-290.0,25.50980392156863,-144.49019607843138,1.67,-1.39,3.28
89.75,304.5098039215686,41.509803921568626,-160.49019607843138,-0.63,0.84,5.9
89.8,320.5098039215686,41.509803921568626,-129.49019607843138,-4.3,-0.55,2.72
89.85,320.5098039215686,58.509803921568626,-144.49019607843138,1.78,-0.27,-0.84
89.9,304.5098039215686,41.509803921568626,-160.49019607843138,3.6,-0.66,0.27
89.95,304.5098039215686,41.509803921568626,-160.49019607843138,0.62,0.03,0.06
90.0,-306.0,25.50980392156863,-144.49019607843138,2.16,-0.52,-0.21
90.05,-306.0,25.50980392156863,-175.49019607843138,6.4,-1.6,0.44
90.1,-306.0,41.509803921568626,-144.49019607843138,-2.66,2.83,2.3
90.15,-306.0,25.50980392156863,-175.49019607843138,7.48,0.07,1.25
90.2,-275.0,74.50980392156863,-129.49019607843138,-3.29,2.34,-1.05
90.25,304.5098039215686,-23.49019607843137,-160.49019607843138,2.55,0.56,0.58
90.3,304.5098039215686,9.509803921568627,-144.49019607843138,-1.64,-0.34,1.0
90.35,320.5098039215686,9.509803921568627,-129.49019607843138,0.83,-1.36,1.81
90.4,320.5098039215686,25.50980392156863,-144.49019607843138,-3.57,0.77,2.09
90.45,320.5098039215686,41.509803921568626,-160.49019607843138,-0.91,0.8,1.39
