rel_time,acc_x,acc_y,acc_z,gyro_x,gyro_y,gyro_z
1053.0,-84.0,52.0,282.01960784313724,-4.45,-12.51,-17.69
1053.05,-131.0,19.0,252.01960784313727,14.05,-6.63,-2.43
1053.1,-275.0,52.0,267.01960784313724,22.84,-8.17,5.93
1053.15,-227.0,-78.0,282.01960784313724,29.31,-2.43,21.75
1053.2,-211.0,-62.0,282.01960784313724,7.58,2.0,26.37
1053.25,320.5098039215686,-45.0,-313.4901960784314,14.89,-0.96,37.6
1053.3,-195.0,-94.0,-313.4901960784314,16.12,-6.49,28.15
1053.35,-195.0,-45.0,252.01960784313727,13.21,3.09,28.33
1053.4,-290.0,3.0,236.01960784313727,11.85,5.15,9.5
1053.45,-179.0,-29.0,298.01960784313724,14.75,-2.92,-7.05
1053.5,-131.0,-29.0,252.01960784313727,-1.2,3.54,-0.54
1053.55,-36.0,-143.0,-313.4901960784314,-0.04,7.36,1.55
1053.6,-52.0,-13.0,267.01960784313724,3.03,10.37,4.39
1053.65,-52.0,3.0,267.01960784313724,-0.25,9.04,8.8
1053.7,-52.0,3.0,298.01960784313724,-0.25,6.48,7.75
1053.75,-68.0,19.0,267.01960784313724,5.13,0.81,7.19
1053.8,-68.0,3.0,267.01960784313724,-0.53,2.88,2.22
1053.85,-84.0,-45.0,313.01960784313724,4.6,-3.69,-6.21
1053.9,-68.0,-45.0,298.01960784313724,-0.74,7.46,-2.95
1053.95,-116.0,-29.0,267.01960784313724,-6.69,10.4,2.81
1054.0,-172.49019607843138,-45.0,267.01960784313724,2.85,4.0,0.92
1054.05,265.0,-45.0,267.01960784313724,3.45,0.85,-0.01
1054.1,122.0,-13.0,282.01960784313724,7.26,3.16,1.31
1054.15,-172.49019607843138,-13.0,267.01960784313724,7.51,-1.77,3.02
1054.2,233.0,-62.0,-313.4901960784314,0.79,-1.84,2.39
1054.25,106.0,-62.0,-313.4901960784314,4.78,-5.13,1.48
1054.3,-204.49019607843138,-62.0,282.01960784313724,11.01,-11.6,-3.93
1054.35,122.0,-78.0,282.01960784313724,10.13,-10.13,0.22
1054.4,-20.0,-45.0,252.01960784313727,-2.56,-4.18,-4.6
1054.45,-229.98039215686273,-78.0,282.01960784313724,-5.15,-2.36,11.6
1054.5,-29.49019607843137,-45.0,252.01960784313727,-15.2,1.9,-8.06
1054.55,247.01960784313727,-78.0,-313.4901960784314,-15.79,3.86,9.57
1054.6,-143.47058823529412,243.01960784313727,98.01960784313725,-2.28,1.69,-15.73
1054.65,-267.4901960784314,297.0,113.01960784313725,-3.61,-2.05,-2.81
1054.7,216.01960784313727,-182.50980392156862,282.01960784313724,1.91,-4.5,1.52
1054.75,247.01960784313727,-138.49019607843138,-209.98039215686273,1.07,-5.69,3.83
1054.8,-283.4901960784314,-143.0,86.50980392156863,-1.09,-8.38,-1.55
1054.85,-172.49019607843138,-84.50980392156863,-298.4901960784314,-5.36,-8.03,0.61
1054.9,208.50980392156862,-154.49019607843138,190.01960784313727,-12.92,-7.02,2.6
1054.95,154.0,-13.0,267.01960784313724,-8.09,-6.88,-1.17
1055.0,-218.50980392156862,111.49019607843137,-236.49019607843138,-12.43,-8.21,-1.31
1055.05,122.0,-105.49019607843137,175.01960784313727,-16.74,-3.41,4.53
1055.1,208.50980392156862,-127.0,267.01960784313724,-7.85,-12.65,2.81
1055.15,79.52941176470588,209.49019607843138,-144.49019607843138,-12.96,-17.97,0.71
1055.2,-152.9607843137255,-56.490196078431374,236.01960784313727,-29.23,-23.64,-1.59
1055.25,-267.4901960784314,-94.0,-298.4901960784314,-49.29,-47.06,-23.81
1055.3,2.5098039215686274,193.49019607843138,24.50980392156863,-126.78,-57.03,-121.67
1055.35,72.01960784313725,-89.49019607843137,-36.490196078431374,-191.67,-81.99,-131.82
1055.4,-179.0,-225.0,132.50980392156862,-164.51,-92.07,-185.72
1055.45,18.50980392156863,291.4901960784314,-233.0,-202.24,-98.72,-198.74
1055.5,308.03921568627453,254.50980392156862,55.509803921568626,-181.94,-95.99,-180.05
1055.55,-213.98039215686273,-100.50980392156863,-21.49019607843137,-183.3,-86.05,-157.23
1055.6,11.0,220.98039215686273,86.50980392156863,-146.17,-76.63,-142.88
1055.65,161.50980392156862,-214.50980392156862,-129.49019607843138,-100.46,-54.62,-116.98
1055.7,-98.01960784313725,275.4901960784314,-144.49019607843138,-76.52,-26.48,-71.83
1055.75,-209.01960784313727,128.49019607843138,-206.49019607843138,-68.43,-4.5,13.35
1055.8,42.0,242.49019607843138,-221.49019607843138,-28.18,2.77,80.79
1055.85,-289.01960784313724,-318.01960784313724,-160.49019607843138,-29.23,13.52,109.53
1055.9,194.49019607843138,95.49019607843137,-129.49019607843138,8.38,1.79,100.01
1055.95,110.52941176470588,-296.5098039215686,255.50980392156862,27.84,7.6,70.29
1056.0,154.0,-127.0,116.50980392156863,14.19,48.83,114.15
1056.05,272.5098039215686,84.0,-83.49019607843137,86.5,64.13,246.94
1056.1,-117.98039215686275,52.0,313.01960784313724,110.69,125.52,-308.81
1056.15,42.0,-1.9803921568627452,263.52941176470586,95.11,150.02,-270.59
1056.2,-220.49019607843138,-29.0,144.01960784313727,4.18,89.33,296.43
1056.25,-200.9607843137255,3.9411764705882355,270.5098039215686,3.41,-56.58,94.97
1056.3,-315.4901960784314,-182.0392156862745,-122.50980392156863,4.32,-129.76,-29.17
1056.35,74.0,-133.50980392156862,77.49019607843137,-42.25,-152.37,-112.78
1056.4,51.490196078431374,68.0,15.490196078431373,-20.24,-137.74,-251.28
1056.45,99.49019607843137,-258.0,-230.50980392156862,-107.49,-9.33,-281.66
1056.5,-305.01960784313724,-62.0,116.50980392156863,-151.1,105.46,-45.72
1056.55,67.49019607843137,-280.5098039215686,179.54901960784315,-80.54,124.68,0.54
1056.6,18.50980392156863,276.4313725490196,-209.98039215686273,-63.32,156.21,-36.06
1056.65,41.01960784313726,-225.52941176470588,-126.0,10.94,117.12,-43.8
1056.7,193.50980392156862,13.490196078431373,135.0,11.74,79.07,17.06
1056.75,-234.50980392156862,-1.9803921568627452,58.0,-8.23,19.92,89.12
1056.8,272.5098039215686,80.01960784313725,-261.5098039215686,-91.43,-21.4,207.46
1056.85,184.01960784313727,19.0,162.50980392156862,138.27,-58.5,316.48
1056.9,-286.47058823529414,40.98039215686274,-13.470588235294118,-2.74,-35.72,245.47
1056.95,108.54901960784314,156.45098039215685,190.01960784313727,20.0,-107.29,85.27
1057.0,-140.49019607843138,30.49019607843137,255.50980392156862,32.6,-128.12,-56.29
1057.05,-225.01960784313727,-307.0,-307.5098039215686,28.54,-102.78,-111.49
1057.1,51.490196078431374,-280.5098039215686,-304.01960784313724,-13.52,-78.28,-225.48
1057.15,-282.5098039215686,-220.01960784313727,-92.50980392156863,-1.16,-82.93,-307.07
1057.2,74.0,138.98039215686273,-141.0,-22.44,5.89,-109.77
1057.25,256.5098039215686,-57.01960784313726,29.03921568627451,-111.73,63.6,26.23
1057.3,-295.96078431372547,95.49019607843137,1.5294117647058822,-67.03,103.47,-0.68
1057.35,104.01960784313725,-23.49019607843137,70.50980392156863,-3.89,90.17,-47.96
1057.4,-236.49019607843138,-198.50980392156862,27.0,-38.02,81.52,0.78
1057.45,120.01960784313725,-285.01960784313724,89.0,29.7,7.29,73.48
1057.5,311.01960784313724,-100.50980392156863,227.0,-1.23,-28.72,146.94
1057.55,-243.0,-258.0,-218.0,131.51,14.39,205.46
1057.6,201.0,139.50980392156862,286.54901960784315,-119.88,33.43,213.34
1057.65,81.50980392156863,-2.5098039215686274,-209.98039215686273,55.77,-85.49,155.8
1057.7,-213.98039215686273,-274.52941176470586,39.509803921568626,120.1,-119.47,2.29
1057.75,25.019607843137255,40.98039215686274,-33.0,74.15,-87.03,-91.71
1057.8,-154.50980392156862,-192.0,215.49019607843138,8.17,-83.46,-268.15
1057.85,-68.0,3.0,-258.01960784313724,-38.05,-73.76,298.03
1057.9,288.5098039215686,264.0,27.0,-121.42,-15.84,-158.14
1057.95,-93.49019607843137,-198.50980392156862,121.03921568627452,-210.57,67.59,-99.94
1058.0,25.019607843137255,-182.50980392156862,247.52941176470588,-158.56,99.58,-160.14
1058.05,-267.4901960784314,-116.50980392156863,-6.490196078431373,-94.82,104.59,-167.66
1058.1,129.50980392156862,-231.50980392156862,316.5098039215686,-60.94,63.57,-113.41
1058.15,-283.4901960784314,-280.5098039215686,120.0,-13.45,26.08,-14.89
1058.2,-165.98039215686273,183.0,73.0,42.4,-2.64,-55.73
1058.25,-308.98039215686276,117.0,313.01960784313724,-114.88,153.45,40.68
1058.3,102.03921568627452,-280.03921568627453,94.52941176470588,-223.8,139.1,43.83
1058.35,86.03921568627452,68.0,-190.49019607843138,-88.63,87.05,-93.99
1058.4,292.03921568627453,-116.50980392156863,178.50980392156862,-69.55,93.18,-139.98
1058.45,94.52941176470588,215.0,104.0,-63.29,99.62,-148.52
1058.5,-38.98039215686274,-280.5098039215686,196.0,-48.87,110.61,-118.21
1058.55,-70.98039215686275,-35.509803921568626,-203.0,-91.67,84.95,-124.47
1058.6,-117.98039215686275,307.4901960784314,24.50980392156863,-117.4,50.51,-146.38
1058.65,2.5098039215686274,-149.50980392156862,-267.4901960784314,-111.87,-5.27,-129.02
1058.7,-298.5098039215686,52.0,224.50980392156862,-103.89,-29.87,-90.17
1058.75,-59.509803921568626,205.50980392156862,212.0,-57.72,-27.18,-91.26
1058.8,-266.5098039215686,41.509803921568626,58.0,-129.05,11.21,-106.73
1058.85,42.0,237.50980392156862,104.0,-167.1,16.49,-81.28
1058.9,-252.49019607843138,-247.50980392156862,-3.0,-137.77,-27.91,-93.64
1058.95,-91.94117647058823,-225.52941176470588,316.5098039215686,-134.23,-17.8,-99.94
1059.0,15.529411764705882,-263.5098039215686,301.5098039215686,-103.5,-1.1,-41.31
1059.05,-20.0,-274.0,-215.50980392156862,14.4,1.72,-30.32
1059.1,-168.52941176470588,-258.0,27.0,79.43,22.06,-42.29
1059.15,-289.01960784313724,156.50980392156862,-3.0,19.62,48.24,-40.33
1059.2,67.49019607843137,68.0,301.5098039215686,3.45,-8.03,-5.96
1059.25,-36.0,-214.0392156862745,294.52941176470586,114.82,-64.45,28.71
1059.3,206.52941176470588,281.94117647058823,-262.96078431372547,-48.13,-3.87,-10.93
1059.35,231.01960784313727,220.98039215686273,-52.490196078431374,-80.75,-29.87,-5.93
1059.4,18.50980392156863,19.0,-246.50980392156862,-95.94,-19.86,35.78
1059.45,65.50980392156863,237.50980392156862,92.49019607843137,8.07,-9.01,71.87
1059.5,177.50980392156862,-105.49019607843137,215.49019607843138,3.13,8.72,117.61
1059.55,224.50980392156862,172.50980392156862,-215.50980392156862,-67.77,36.27,118.17
1059.6,152.01960784313727,19.0,255.50980392156862,-110.5,27.83,84.78
1059.65,-41.96078431372549,281.94117647058823,25.54901960784314,-13.13,13.2,47.96
1059.7,11.0,285.98039215686276,-86.98039215686275,-43.27,50.97,9.43
1059.75,-59.509803921568626,-45.0,-33.0,-14.85,91.85,-19.12
1059.8,-241.01960784313727,-29.0,273.0,18.99,129.05,-69.42
1059.85,163.49019607843138,-241.0,196.0,67.36,43.34,23.99
1059.9,131.49019607843138,-111.0,89.0,-10.44,117.78,165.74
1059.95,-170.50980392156862,183.47058823529412,-40.98039215686274,-197.9,166.71,54.33
1060.0,-259.0,85.94117647058823,-255.98039215686273,-136.68,158.59,-0.61
1060.05,-290.0,-241.52941176470588,-21.49019607843137,18.43,86.18,7.15
1060.1,-100.0,215.0,27.0,21.12,38.72,50.62
1060.15,-243.0,-192.0,289.0,19.93,-9.99,161.89
1060.2,-13.490196078431373,-154.49019607843138,92.49019607843137,177.12,-21.44,265.07
1060.25,193.50980392156862,205.50980392156862,-184.50980392156862,53.67,106.62,323.38
1060.3,168.01960784313727,248.0,147.50980392156862,-8.51,30.28,236.58
1060.35,-111.47058823529412,-164.5686274509804,132.54901960784315,17.94,-55.21,98.82
1060.4,193.50980392156862,-61.529411764705884,-209.98039215686273,-12.64,-114.92,-33.05
1060.45,-36.0,297.0,239.50980392156862,2.01,-108.31,-120.59
1060.5,249.0,52.0,-310.0,34.53,-103.09,-244.17
1060.55,-107.50980392156863,-192.0,-95.0,-152.12,-54.51,-265.1
1060.6,124.98039215686275,-62.0,119.0,-144.59,141.76,-45.76
1060.65,108.98039215686275,-198.50980392156862,119.0,-70.88,141.97,15.03
1060.7,106.0,-164.5686274509804,47.529411764705884,-76.38,158.35,-33.68
1060.75,222.52941176470588,-252.54901960784315,-270.98039215686276,-12.57,94.19,-46.18
1060.8,200.01960784313727,-138.01960784313727,39.509803921568626,19.86,55.55,32.11
1060.85,18.50980392156863,35.0,-49.0,-66.75,2.21,83.8
1060.9,288.5098039215686,-307.0,-199.50980392156862,-44.24,22.06,159.3
1060.95,-4.0,237.50980392156862,46.490196078431374,7.96,-19.37,230.14
1061.0,-227.0,-247.50980392156862,-79.0,-0.43,-75.69,146.77
1061.05,-101.98039215686275,-247.0392156862745,-224.98039215686273,34.07,-123.32,34.66
1061.1,41.01960784313726,-78.52941176470588,32.529411764705884,76.88,-130.71,-53.21
1061.15,-29.49019607843137,232.0,-283.4901960784314,17.06,-68.41,-120.31
1061.2,-163.0,19.0,116.50980392156863,41.67,-65.15,-250.44
1061.25,74.0,-192.0,316.5098039215686,-44.91,-19.97,-288.59
1061.3,122.0,-290.0,-3.0,-137.17,58.74,-47.61
1061.35,-29.49019607843137,106.98039215686275,39.509803921568626,-58.46,51.25,-18.49
1061.4,-279.96078431372547,-225.52941176470588,224.50980392156862,-33.71,88.52,-90.59
1061.45,-260.98039215686276,144.49019607843138,-175.49019607843138,55.39,83.94,-103.19
1061.5,-186.50980392156862,183.0,9.509803921568627,93.36,59.72,-49.78
1061.55,-114.01960784313725,-94.0,-203.0,47.62,-21.89,73.62
1061.6,194.49019607843138,101.0,196.0,11.19,-108.94,159.05
1061.65,-282.5098039215686,-263.5098039215686,289.0,175.68,-96.93,260.2
1061.7,65.50980392156863,95.49019607843137,-307.5098039215686,38.97,-58.85,311.06
1061.75,231.01960784313727,-51.509803921568626,-49.0,84.16,-120.49,245.05
1061.8,57.01960784313726,-182.50980392156862,12.0,94.9,-126.26,127.8
1061.85,72.01960784313725,-160.0,-64.0,89.58,-102.43,81.98
1061.9,231.01960784313727,19.0,-172.0,50.59,-116.11,20.38
1061.95,-172.49019607843138,19.0,-233.0,58.85,-135.12,-41.91
1062.0,142.52941176470588,117.0,224.50980392156862,-75.75,-106.07,25.7
1062.05,-302.47058823529414,35.0,-126.0,11.18,-113.24,107.22
1062.1,-19.45098039215686,297.0,-169.50980392156862,-14.92,-139.11,56.99
1062.15,308.03921568627453,270.5098039215686,-163.98039215686273,31.41,-172.11,34.63
1062.2,-25.96078431372549,-214.50980392156862,-279.0,102.95,-184.57,62.24
1062.25,165.0392156862745,-45.0,55.509803921568626,92.66,-167.35,36.17
1062.3,-165.98039215686273,68.0,-264.0,202.35,-132.6,-52.69
1062.35,-236.49019607843138,-13.0,27.0,16.43,-74.39,45.44
1062.4,200.01960784313727,-263.5098039215686,270.5098039215686,56.58,-84.05,13.1
1062.45,-77.49019607843137,264.0,301.5098039215686,142.99,-124.69,64.9
1062.5,320.5098039215686,-182.50980392156862,-249.0,166.79,-148.52,111.59
1062.55,186.0,84.0,301.5098039215686,204.66,-161.02,86.67
1062.6,4.490196078431373,52.0,316.5098039215686,146.7,-152.62,18.88
1062.65,-43.509803921568626,35.0,-203.0,154.37,-175.54,-66.55
1062.7,-250.50980392156862,297.0,-36.490196078431374,121.57,-178.69,-97.59
1062.75,81.50980392156863,-241.52941176470588,-240.98039215686273,235.15,-155.35,-56.43
1062.8,229.0392156862745,-23.54901960784314,-47.96078431372549,134.77,-60.01,-86.36
1062.85,-143.47058823529412,-225.52941176470588,-175.49019607843138,22.59,27.83,-60.91
1062.9,88.01960784313725,313.0,135.0,35.86,53.45,-31.9
1062.95,-236.49019607843138,286.5098039215686,15.490196078431373,34.28,55.03,-20.56
1063.0,34.509803921568626,-219.49019607843138,138.49019607843138,18.22,5.43,11.95
1063.05,-290.0,123.50980392156863,-122.50980392156863,-64.83,-38.8,19.96
1063.1,145.50980392156862,188.50980392156862,-80.0,-78.16,-47.2,-13.35
1063.15,-175.47058823529412,128.9607843137255,275.03921568627453,-127.41,-56.72,32.95
1063.2,-308.98039215686276,-268.54901960784315,229.0392156862745,-91.29,-54.58,62.49
1063.25,-84.0,128.49019607843138,252.01960784313727,-62.59,-16.36,78.69
1063.3,-107.50980392156863,-78.0,-95.0,17.59,19.57,74.88
1063.35,226.49019607843138,-78.0,-64.0,18.25,110.43,66.44
1063.4,-305.01960784313724,-192.0,135.0,1.07,147.08,49.96
1063.45,35.490196078431374,281.0,-264.0,95.57,129.33,27.42
1063.5,-195.0,-88.54901960784314,229.0392156862745,9.99,104.2,59.9
1063.55,-22.980392156862745,-182.0392156862745,17.529411764705884,22.03,66.16,102.0
1063.6,145.50980392156862,46.490196078431374,239.50980392156862,36.14,60.56,139.91
1063.65,-195.0,-160.0,181.0,45.62,106.86,179.21
1063.7,129.50980392156862,123.50980392156863,230.49019607843138,-22.65,155.34,239.59
1063.75,113.50980392156863,41.509803921568626,-304.01960784313724,44.36,223.2,-314.24
1063.8,2.5098039215686274,-241.0,227.0,-125.62,110.43,310.01
1063.85,190.52941176470588,-302.01960784313724,175.01960784313727,-136.08,-22.73,161.08
1063.9,-215.9607843137255,237.45098039215685,86.54901960784314,-23.39,-79.96,-5.54
1063.95,-52.0,57.98039215686274,-270.98039215686276,-92.62,-77.61,-113.8
1064.0,-234.50980392156862,-241.0,-187.0,-13.76,-71.07,-225.27
1064.05,83.49019607843137,-13.0,-110.0,-1.3,-84.09,-270.39
1064.1,226.49019607843138,-192.0,150.0,4.64,11.63,-148.13
1064.15,-305.01960784313724,166.0,-95.0,58.15,66.33,18.49
1064.2,-186.50980392156862,-307.52941176470586,113.01960784313725,29.49,87.61,-11.6
1064.25,-260.98039215686276,-306.05882352941177,29.03921568627451,29.63,85.2,-75.51
1064.3,247.01960784313727,-176.52941176470588,-147.98039215686273,44.89,50.48,-23.57
1064.35,161.50980392156862,133.0,-264.0,104.63,2.77,60.46
1064.4,320.5098039215686,-160.0,-292.5098039215686,22.66,-5.37,160.49
1064.45,2.5098039215686274,-138.49019607843138,-135.01960784313727,11.64,50.48,245.47
1064.5,65.50980392156863,286.5098039215686,215.49019607843138,-39.77,109.07,253.97
1064.55,57.01960784313726,264.0,224.50980392156862,-184.18,-29.84,179.84
1064.6,-223.47058823529412,-301.54901960784315,286.54901960784315,-171.54,-107.71,63.05
1064.65,136.01960784313727,-274.52941176470586,109.52941176470588,-101.47,-139.35,-30.15
1064.7,-84.0,-280.5098039215686,-67.49019607843137,-66.09,-102.95,-143.02
1064.75,297.0,19.0,316.5098039215686,-14.29,-107.89,-260.66
1064.8,35.490196078431374,-78.0,27.0,-8.3,-54.02,-231.85
1064.85,-241.01960784313727,-78.0,-33.0,24.45,66.61,1.17
1064.9,-139.50980392156862,-165.50980392156862,270.5098039215686,-18.14,45.82,6.31
1064.95,79.52941176470588,95.96078431372548,-139.9607843137255,-152.61,74.17,-77.36
1065.0,-302.47058823529414,-57.01960784313726,-187.0,-13.76,56.85,-104.59
1065.05,247.01960784313727,215.0,-110.0,-1.3,21.36,-12.68
1065.1,34.509803921568626,237.50980392156862,150.0,4.64,-15.56,74.84
1065.15,177.50980392156862,41.509803921568626,-95.0,58.15,-17.62,174.91
1065.2,2.5098039215686274,319.5098039215686,113.01960784313725,29.49,79.0,235.25
1065.25,-38.98039215686274,-220.01960784313727,29.03921568627451,29.63,42.04,228.32
1065.3,197.0392156862745,248.47058823529412,-147.98039215686273,44.89,-48.6,114.46
1065.35,-220.49019607843138,-106.01960784313725,-264.0,104.63,-109.46,3.58
1065.4,90.0,258.4901960784314,-292.5098039215686,22.66,-115.48,-88.88
1065.45,-225.01960784313727,-312.5098039215686,-135.01960784313727,11.64,-136.31,-221.14
1065.5,115.49019607843137,-2.5098039215686274,215.49019607843138,-39.77,-99.56,-292.89
1065.55,27.0,30.49019607843137,224.50980392156862,-184.18,33.54,-112.01
1065.6,238.52941176470588,291.4901960784314,286.54901960784315,-171.54,74.56,-50.87
1065.65,120.01960784313725,-84.50980392156863,109.52941176470588,-101.47,82.29,-99.38
1065.7,-252.49019607843138,166.0,-67.49019607843137,-66.09,86.91,-147.12
1065.75,256.5098039215686,-45.0,316.5098039215686,-14.29,58.28,-81.42
1065.8,208.50980392156862,-111.0,27.0,-8.3,25.8,-10.23
1065.85,240.50980392156862,-78.0,-33.0,24.45,20.48,10.27
1065.9,-204.49019607843138,-45.0,270.5098039215686,-18.14,120.44,-22.9
1065.95,72.01960784313725,-45.0,-139.9607843137255,-152.61,163.91,49.64
1066.0,-117.98039215686275,215.0,113.01960784313725,-58.39,87.51,14.71
1066.05,-149.98039215686273,35.0,-98.49019607843137,-8.23,65.67,-95.53
1066.1,-38.98039215686274,-143.0,181.0,-36.16,58.6,-156.92
1066.15,235.54901960784315,269.98039215686276,0.49019607843137253,-109.77,52.93,-220.13
1066.2,267.54901960784315,19.0,46.490196078431374,-78.44,21.57,-306.86
1066.25,6.03921568627451,-182.50980392156862,316.5098039215686,-271.01,59.51,-145.58
1066.3,133.0392156862745,-165.50980392156862,278.52941176470586,-250.12,67.21,-158.46
1066.35,222.52941176470588,35.0,-252.49019607843138,-149.21,64.02,-168.43
1066.4,-86.98039215686275,111.49019607843137,-295.0,-150.12,34.55,-141.03
1066.45,-188.49019607843138,242.49019607843138,12.0,-96.78,35.64,-56.85
1066.5,-123.50980392156863,-45.0,-156.0,-103.22,31.4,-21.54
1066.55,-305.01960784313724,-176.0,178.50980392156862,-163.74,40.43,-57.31
1066.6,131.49019607843138,237.50980392156862,-98.49019607843137,-123.52,-31.59,-95.07
1066.65,-59.509803921568626,-143.0,86.50980392156863,-92.9,-54.48,-100.08
1066.7,-36.0,79.49019607843137,-264.0,-96.75,-34.39,-63.15
1066.75,136.01960784313727,-284.54901960784315,-172.0,-47.99,-20.28,-35.89
1066.8,219.54901960784315,177.9607843137255,-218.0,-30.49,-18.6,-29.9
1066.85,-38.98039215686274,40.98039215686274,286.5098039215686,10.24,-12.83,-57.55
1066.9,34.509803921568626,84.0,178.50980392156862,14.16,-10.03,-62.52
1066.95,81.50980392156863,139.50980392156862,270.5098039215686,68.06,-23.08,-48.94
1067.0,161.50980392156862,-170.49019607843138,-295.0,38.8,20.62,-12.47
1067.05,272.5098039215686,237.50980392156862,193.50980392156862,27.63,16.88,-2.57
1067.1,65.50980392156863,237.50980392156862,147.50980392156862,-149.77,49.6,33.44
1067.15,-209.45098039215685,-127.05882352941177,-246.50980392156862,-59.72,-49.51,32.67
1067.2,-236.49019607843138,285.98039215686276,-9.980392156862745,7.75,-116.39,58.08
1067.25,154.0,-78.0,135.0,-106.34,-63.33,73.2
1067.3,274.4901960784314,-62.0,-6.490196078431373,-166.96,45.47,85.17
1067.35,178.49019607843138,172.50980392156862,193.50980392156862,-165.38,146.17,104.38
1067.4,274.4901960784314,-78.0,175.01960784313727,-171.05,180.57,110.19
1067.45,-59.509803921568626,-116.50980392156863,206.01960784313727,19.58,119.88,104.45
1067.5,161.50980392156862,74.92156862745098,316.5098039215686,-8.44,58.84,45.62
1067.55,79.52941176470588,264.47058823529414,258.0,23.85,42.01,56.64
1067.6,49.509803921568626,-133.50980392156862,-33.0,49.86,25.28,101.48
1067.65,-243.0,-307.0,-64.0,104.11,65.07,214.0
1067.7,-13.490196078431373,58.509803921568626,36.01960784313726,292.9,147.15,276.48
1067.75,320.5098039215686,-72.49019607843137,-62.96078431372549,12.79,222.29,259.05
1067.8,65.50980392156863,-192.0,263.52941176470586,46.99,45.44,182.71
1067.85,311.01960784313724,89.98039215686275,304.0,10.69,-79.78,58.85
1067.9,79.52941176470588,-176.05882352941177,15.490196078431373,-5.05,-133.72,-41.31
1067.95,154.0,-318.01960784313724,230.49019607843138,-36.93,-102.88,-163.78
1068.0,-139.50980392156862,-62.0,224.50980392156862,16.47,-70.96,-286.35
1068.05,-170.50980392156862,-290.0,27.0,-57.23,-96.93,-305.18
1068.1,-75.50980392156863,-94.0,104.0,-75.71,72.0,-30.22
1068.15,-177.01960784313727,-78.0,-261.5098039215686,-118.73,107.56,51.74
1068.2,290.4901960784314,-220.01960784313727,-280.0,-125.13,115.68,-2.39
1068.25,231.01960784313727,129.4313725490196,102.54901960784314,-17.44,52.61,-33.4
1068.3,-172.49019607843138,-241.52941176470588,-178.98039215686273,-44.84,65.42,23.74
1068.35,-45.490196078431374,-296.5098039215686,209.50980392156862,37.54,22.69,87.93
1068.4,208.50980392156862,270.5098039215686,135.0,-37.0,8.02,188.17
1068.45,97.50980392156863,-56.490196078431374,92.49019607843137,177.15,23.18,305.77
1068.5,-131.0,74.50980392156863,15.490196078431373,-73.19,76.31,296.85
1068.55,-116.0,-274.0,120.0,42.79,-67.22,215.09
1068.6,6.03921568627451,-213.5686274509804,206.05882352941177,0.37,-127.17,103.44
1068.65,247.01960784313727,285.98039215686276,155.52941176470588,33.58,-117.3,-6.28
1068.7,27.0,150.0,206.01960784313727,-33.89,-42.4,-157.93
1068.75,4.490196078431373,-225.0,224.50980392156862,22.35,-13.11,-265.0
1068.8,-320.01960784313724,-258.0,-187.0,-168.25,32.28,-311.93
1068.85,-247.52941176470588,215.0,-3.0,-140.85,46.77,10.93
1068.9,76.98039215686275,-198.0392156862745,39.509803921568626,-28.74,37.04,-11.7
1068.95,-70.98039215686275,74.45098039215686,-98.49019607843137,35.05,70.57,-113.62
1069.0,-86.98039215686275,101.47058823529412,-295.0,41.6,46.1,-100.25
1069.05,120.01960784313725,35.0,273.0,70.47,11.56,-17.2
1069.1,81.50980392156863,-176.0,212.0,16.5,-60.46,56.08
1069.15,-20.0,107.50980392156863,227.0,116.08,-87.38,109.77
1069.2,304.5098039215686,215.0,-280.0,-77.74,67.24,217.78
1069.25,-283.4901960784314,220.98039215686273,129.01960784313727,-90.34,-58.19,238.15
1069.3,231.01960784313727,-231.50980392156862,70.50980392156863,24.24,-122.2,187.4
1069.35,-306.0,-296.5098039215686,-233.0,20.0,-139.84,114.71
1069.4,313.0,232.0,212.0,62.74,-100.75,30.81
1069.45,281.0,199.0,135.0,41.28,-80.45,-126.4
1069.5,65.50980392156863,13.490196078431373,-156.0,-76.24,-135.71,-284.04
1069.55,-315.4901960784314,226.49019607843138,-310.0,-30.39,-31.55,-24.55
1069.6,-54.98039215686274,46.490196078431374,163.50980392156862,-149.88,-1.73,20.38
1069.65,168.01960784313727,-231.50980392156862,-218.0,24.97,-6.32,-45.79
1069.7,-283.4901960784314,264.0,-249.0,65.68,-78.84,-0.61
1069.75,88.01960784313725,183.0,-79.0,118.32,-145.69,124.4
1069.8,222.52941176470588,117.0,-310.0,144.01,-234.38,190.24
1069.85,-48.470588235294116,-111.0,-280.0,325.52,-196.51,190.83
1069.9,63.529411764705884,-176.0,175.01960784313727,43.28,-50.03,189.22
1069.95,181.0392156862745,74.50980392156863,82.01960784313725,51.33,-131.37,140.33
1070.0,229.0392156862745,-280.5098039215686,24.50980392156863,-31.44,-153.7,81.49
1070.05,-308.98039215686276,13.490196078431373,98.01960784313725,54.55,-160.53,56.15
1070.1,-6.980392156862745,79.49019607843137,-298.4901960784314,10.66,-178.94,18.07
1070.15,-38.98039215686274,79.49019607843137,-98.49019607843137,-39.56,-169.24,-50.76
1070.2,-299.4901960784314,264.0,-110.0,36.28,-163.08,-41.31
1070.25,320.5098039215686,-13.0,-122.50980392156863,-27.8,-153.18,-20.77
1070.3,-52.0,188.50980392156862,215.49019607843138,-37.63,-167.11,18.18
1070.35,154.0,-105.49019607843137,-242.01960784313727,11.18,-168.3,70.08
1070.4,272.5098039215686,-307.0,212.0,91.82,-132.21,18.74
1070.45,-197.98039215686273,95.49019607843137,-252.49019607843138,-201.78,-59.8,-47.61
1070.5,12.549019607843137,-73.01960784313725,140.52941176470588,-140.22,-68.83,-72.92
1070.55,247.01960784313727,-204.01960784313727,206.01960784313727,-131.19,-61.44,-58.04
1070.6,249.0,199.0,135.0,-69.48,-42.51,-18.42
1070.65,-66.01960784313725,-225.0,286.5098039215686,-16.04,1.16,-12.33
1070.7,-225.01960784313727,-192.0,-264.0,45.48,7.81,-22.52
1070.75,115.49019607843137,264.0,193.50980392156862,129.62,-0.05,-47.96
1070.8,90.0,122.98039215686275,205.01960784313727,96.65,-83.63,33.79
1070.85,269.52941176470586,-148.5686274509804,302.54901960784315,-11.84,-55.07,25.42
1070.9,301.52941176470586,215.47058823529412,-9.980392156862745,-21.92,-46.32,57.24
1070.95,-124.49019607843137,-247.50980392156862,27.0,-8.02,32.24,99.17
1071.0,49.509803921568626,-241.0,-92.50980392156863,-36.51,74.21,130.77
1071.05,-236.49019607843138,-252.49019607843138,-273.01960784313724,12.13,107.32,174.14
1071.1,-108.49019607843137,123.50980392156863,319.0,75.06,125.24,152.61
1071.15,-165.98039215686273,-111.0,178.50980392156862,-239.83,112.22,72.95
1071.2,181.0392156862745,-268.54901960784315,-100.94117647058823,-112.43,55.38,-0.64
1071.25,-36.0,232.47058823529412,201.52941176470588,-117.85,12.43,-96.33
1071.3,-107.50980392156863,68.0,-110.0,-43.13,-58.08,-168.85
1071.35,-320.01960784313724,-62.0,-79.0,-13.87,-110.37,-237.66
1071.4,67.49019607843137,-209.0,73.0,-28.01,-65.29,-167.98
1071.45,35.490196078431374,-29.0,43.0,-18.21,159.26,75.05
1071.5,-75.50980392156863,-253.01960784313727,-21.49019607843137,98.09,145.85,83.17
1071.55,-45.490196078431374,227.4313725490196,-155.9607843137255,-46.38,107.74,63.36
1071.6,72.01960784313725,117.47058823529412,-117.98039215686275,38.27,108.58,74.91
1071.65,177.50980392156862,-296.5098039215686,316.5098039215686,59.73,79.63,128.64
1071.7,224.50980392156862,-143.0,320.0,2.47,59.89,231.43
1071.75,-252.49019607843138,-56.490196078431374,-289.01960784313724,-9.67,10.37,293.1
1071.8,145.50980392156862,58.509803921568626,184.49019607843138,1.07,89.01,-315.01
1071.85,-283.4901960784314,-143.0,-95.0,-91.88,45.3,306.05
1071.9,-159.47058823529412,52.94117647058823,9.549019607843137,-85.23,-66.17,152.4
1071.95,-108.49019607843137,-67.03921568627452,17.529411764705884,-31.44,-128.29,13.56
1072.0,58.0,313.0,-6.490196078431373,-29.51,-127.66,-107.46
1072.05,-75.50980392156863,-78.0,27.0,51.36,-121.57,-283.69
1072.1,4.490196078431373,-78.0,320.0,106.84,-114.5,291.7
1072.15,242.49019607843138,19.0,-261.5098039215686,9.4,104.41,-58.81
1072.2,-75.50980392156863,95.49019607843137,-52.490196078431374,58.29,76.2,-2.88
1072.25,-68.0,270.45098039215685,209.54901960784315,-105.64,112.04,-46.11
1072.3,-133.98039215686273,-106.01960784313725,32.529411764705884,31.17,97.31,-52.13
1072.35,224.50980392156862,-296.5098039215686,-175.49019607843138,90.21,87.51,2.08
1072.4,-275.0,-225.0,-233.0,115.9,16.63,84.29
1072.45,-252.49019607843138,-241.0,261.4901960784314,-18.73,-33.13,182.85
1072.5,-204.49019607843138,172.50980392156862,-119.01960784313725,-39.49,-30.78,301.85
1072.55,88.01960784313725,248.0,58.0,-282.42,-25.78,270.21
1072.6,-318.47058823529414,-56.549019607843135,14.03921568627451,-226.25,-112.54,165.98
1072.65,-267.4901960784314,281.47058823529414,155.52941176470588,-185.09,-144.15,23.99
1072.7,58.0,-133.50980392156862,101.50980392156863,-109.1,-84.79,-68.37
1072.75,4.490196078431373,-165.50980392156862,-64.0,-81.17,-56.79,-226.6
1072.8,51.490196078431374,215.0,-18.0,-75.5,-32.85,-266.36
1072.85,-43.509803921568626,-263.5098039215686,-49.0,-34.83,10.61,-149.67
1072.9,74.0,128.49019607843138,-206.49019607843138,-127.76,78.13,0.89
1072.95,-41.96078431372549,68.47058823529412,-255.98039215686273,-147.57,127.16,-48.28
1073.0,9.019607843137255,46.490196078431374,-144.49019607843138,-66.02,122.47,-83.45
1073.05,193.50980392156862,-231.50980392156862,116.50980392156863,-64.41,61.61,-9.36
1073.1,-163.0,68.0,-79.0,-41.69,-25.36,78.69
1073.15,-20.0,35.0,89.0,-69.13,-6.53,185.34
1073.2,208.50980392156862,183.0,-280.0,-82.12,71.93,179.7
1073.25,-315.4901960784314,-100.50980392156863,101.50980392156863,-151.31,105.85,160.0
1073.3,152.01960784313727,-231.50980392156862,270.5098039215686,-134.79,-39.85,116.84
1073.35,200.01960784313727,-84.50980392156863,224.50980392156862,-77.25,-99.87,11.98
1073.4,288.5098039215686,264.0,58.0,-72.95,-120.8,-101.09
1073.45,320.5098039215686,-312.5098039215686,-172.0,-90.59,-103.41,-256.74
1073.5,145.50980392156862,-296.5098039215686,-110.0,-89.08,-65.4,301.36
1073.55,-267.4901960784314,-312.5098039215686,286.5098039215686,-39.7,95.91,-212.67
1073.6,88.01960784313725,-100.50980392156863,86.50980392156863,32.88,151.59,-139.21
1073.65,-204.49019607843138,-280.5098039215686,24.50980392156863,82.65,201.82,-184.64
1073.7,-252.49019607843138,313.0,55.509803921568626,53.36,169.76,-217.57
1073.75,311.01960784313724,35.0,-129.49019607843138,8.14,134.86,-157.79
1073.8,253.52941176470588,101.0,-129.49019607843138,-34.45,96.78,-69.14
1073.85,-238.47058823529412,117.47058823529412,-15.509803921568627,-94.96,46.73,-69.87
1073.9,-254.47058823529412,-45.0,248.52941176470588,-46.87,104.38,-39.11
1073.95,-79.47058823529412,313.0,-279.0,-48.9,74.17,-26.86
1074.0,-292.98039215686276,-182.50980392156862,-144.49019607843138,-66.02,62.17,-83.07
1074.05,25.019607843137255,-296.5098039215686,116.50980392156863,-64.41,68.96,-132.31
1074.1,104.01960784313725,-2.5098039215686274,-79.0,-41.69,31.26,-146.84
1074.15,-308.98039215686276,160.49019607843138,89.0,-69.13,16.0,-125.87
1074.2,-149.98039215686273,258.4901960784314,-280.0,-82.12,11.1,-124.86
1074.25,240.50980392156862,133.0,101.50980392156863,-151.31,-3.8,-158.32
1074.3,297.0,25.50980392156863,270.5098039215686,-134.79,-6.07,-147.54
1074.35,-218.50980392156862,161.01960784313727,224.50980392156862,-77.25,-15.91,-102.63
1074.4,58.0,25.50980392156863,58.0,-72.95,-20.14,-90.38
1074.45,288.5098039215686,172.50980392156862,-172.0,-90.59,-20.81,-59.09
1074.5,-209.45098039215685,-306.05882352941177,-110.0,-89.08,-16.19,-43.2
1074.55,110.52941176470588,101.47058823529412,286.5098039215686,-39.7,0.18,-21.99
1074.6,-227.0,281.0,86.50980392156863,32.88,16.49,1.06
1074.65,-209.01960784313727,-192.0,24.50980392156863,82.65,10.02,-21.22
1074.7,115.49019607843137,205.50980392156862,55.509803921568626,53.36,11.98,-44.22
1074.75,178.49019607843138,-45.0,-129.49019607843138,8.14,-21.68,5.23
1074.8,258.4901960784314,-187.01960784313727,-129.49019607843138,-34.45,-0.37,67.95
1074.85,27.0,-192.05882352941177,-15.509803921568627,-94.96,-43.87,57.03
1074.9,-165.98039215686273,-274.05882352941177,248.52941176470588,-46.87,-44.78,63.26
1074.95,-188.49019607843138,13.490196078431373,-279.0,-48.9,9.56,76.42
1075.0,-29.49019607843137,-192.0,236.01960784313727,20.77,55.27,120.87
1075.05,-188.49019607843138,-219.49019607843138,-236.49019607843138,64.42,86.14,170.67
1075.1,-45.490196078431374,25.50980392156863,-313.4901960784314,-39.59,104.31,216.14
1075.15,-315.4901960784314,-241.0,-160.49019607843138,-72.6,105.64,161.05
1075.2,6.03921568627451,-198.0392156862745,147.50980392156862,30.29,60.66,72.64
1075.25,94.52941176470588,-274.05882352941177,320.0,16.68,31.75,-24.09
1075.3,-313.5098039215686,144.49019607843138,123.49019607843137,-26.5,17.44,-86.15
1075.35,131.49019607843138,-274.0,184.49019607843138,39.92,0.29,-170.32
1075.4,-139.50980392156862,303.5098039215686,304.0,21.47,-22.31,-167.38
1075.45,35.490196078431374,-143.0,196.0,20.18,132.62,-55.91
1075.5,210.49019607843138,19.0,-67.45098039215686,-160.59,152.92,40.51
1075.55,-59.509803921568626,-39.549019607843135,129.01960784313727,-119.57,127.02,-3.69
1075.6,-172.49019607843138,3.9411764705882355,73.0,6.07,55.69,-29.27
1075.65,65.50980392156863,275.4901960784314,166.0,-38.19,82.96,-2.5
1075.7,-290.0,-62.0,316.5098039215686,-72.67,78.48,119.96
1075.75,65.50980392156863,139.50980392156862,-249.0,52.31,-4.36,251.66
1075.8,-124.49019607843137,-89.49019607843137,-6.490196078431373,10.84,2.0,-304.09
1075.85,-172.49019607843138,237.50980392156862,-270.98039215686276,94.8,34.03,-320.4
1075.9,-197.98039215686273,-198.50980392156862,-193.98039215686273,0.44,-37.78,231.43
1075.95,165.0392156862745,-61.05882352941177,-79.0,1.63,-116.57,72.39
1076.0,-20.0,85.47058823529412,-215.50980392156862,-26.68,-140.96,-93.95
1076.05,297.0,68.0,277.4901960784314,5.97,-134.0,-245.99
1076.1,-139.50980392156862,286.5098039215686,61.490196078431374,26.48,-142.15,316.83
1076.15,35.490196078431374,-241.0,58.0,-98.88,-3.76,-247.71
1076.2,108.98039215686275,3.0,-44.470588235294116,-156.07,128.81,22.1
1076.25,60.98039215686274,-24.019607843137255,-185.9607843137255,-98.5,141.55,21.96
1076.3,27.0,205.92156862745097,-283.4901960784314,12.97,127.48,-57.66
1076.35,25.019607843137255,-116.03921568627452,-3.0,-17.93,112.99,-46.67
1076.4,216.01960784313727,-269.01960784313724,273.0,-2.11,50.69,-5.86
1076.45,-140.49019607843138,52.0,-246.50980392156862,-92.51,-19.16,75.82
1076.5,-204.49019607843138,-78.0,135.0,8.17,-31.24,236.89
1076.55,2.5098039215686274,58.509803921568626,109.52941176470588,-31.23,15.69,293.07
1076.6,272.5098039215686,-160.0,-136.47058823529412,10.17,-79.99,189.4
1076.65,-243.0,13.490196078431373,-36.490196078431374,55.74,-141.03,50.24
1076.7,222.52941176470588,85.47058823529412,27.0,66.41,-149.82,-43.76
1076.75,145.50980392156862,258.4901960784314,-76.50980392156863,21.79,-101.34,-166.44
1076.8,177.50980392156862,-225.0,307.4901960784314,43.56,-93.36,-315.4
1076.85,27.0,254.50980392156862,-184.50980392156862,-50.86,-25.92,321.24
1076.9,122.0,254.50980392156862,-83.49019607843137,-276.54,130.52,-44.99
1076.95,27.0,-143.0,160.05882352941177,-92.48,57.55,9.57
1077.0,-20.0,85.47058823529412,-101.98039215686275,53.81,82.54,-64.87
1077.05,297.0,68.0,-52.490196078431374,120.94,78.13,-69.28
1077.1,-139.50980392156862,286.5098039215686,224.50980392156862,117.02,45.58,17.44
1077.15,35.490196078431374,-241.0,-172.0,100.57,-57.03,117.61
1077.2,108.98039215686275,3.0,-246.50980392156862,26.72,-70.44,227.86
1077.25,60.98039215686274,-24.019607843137255,316.5098039215686,166.48,0.29,-270.49
1077.3,27.0,205.92156862745097,-185.9607843137255,-23.04,26.15,-289.53
1077.35,25.019607843137255,-116.03921568627452,247.52941176470588,-17.23,-81.43,288.69
1077.4,216.01960784313727,-269.01960784313724,163.50980392156862,-11.03,-160.98,206.34
1077.45,-140.49019607843138,52.0,73.0,65.99,-193.01,127.31
1077.5,-204.49019607843138,-78.0,-230.50980392156862,13.21,-166.13,11.98
1077.55,2.5098039215686274,58.509803921568626,-30.50980392156863,33.48,-187.72,-56.43
1077.6,272.5098039215686,-160.0,258.0,-28.85,-201.02,-78.66
1077.65,-243.0,13.490196078431373,113.01960784313725,-98.36,-79.92,141.69
1077.7,222.52941176470588,85.47058823529412,-293.96078431372547,-27.1,-101.48,122.58
1077.75,145.50980392156862,258.4901960784314,263.52941176470586,-30.81,-78.8,51.43
1077.8,177.50980392156862,-225.0,267.01960784313724,47.09,-127.31,68.23
1077.85,27.0,254.50980392156862,-233.0,99.49,-165.15,85.52
1077.9,122.0,254.50980392156862,166.0,92.74,-173.83,10.02
1077.95,27.0,-143.0,73.0,105.26,-85.56,-60.42
1078.0,-48.470588235294116,13.96078431372549,-317.98039215686276,-9.67,-69.84,-28.01
1078.05,285.52941176470586,291.4901960784314,159.01960784313727,105.37,-88.71,10.51
1078.1,272.5098039215686,-84.50980392156863,-160.49019607843138,123.11,-117.27,89.4
1078.15,51.490196078431374,52.0,-295.0,218.42,-161.05,118.84
1078.2,-11.509803921568627,101.0,89.0,175.47,-168.89,84.05
1078.25,42.0,166.0,-126.0,148.07,-148.84,14.36
1078.3,231.01960784313727,209.49019607843138,162.50980392156862,147.75,-147.54,17.9
1078.35,-22.980392156862745,226.49019607843138,-295.0,57.84,-135.26,36.13
1078.4,-213.98039215686273,248.0,12.0,30.5,-103.23,33.61
1078.45,311.01960784313724,183.0,-64.0,116.29,-76.49,17.76
1078.5,304.5098039215686,-78.0,120.0,90.98,-20.74,-36.87
1078.55,-13.490196078431373,52.0,-95.0,2.12,5.36,-76.94
1078.6,263.01960784313724,52.0,-80.0,-48.2,8.51,-101.16
1078.65,-6.980392156862745,183.0,-279.0,-27.97,16.04,-59.76
1078.7,-101.98039215686275,-214.50980392156862,316.5098039215686,64.56,13.66,-27.94
1078.75,247.01960784313727,248.0,-264.0,52.17,38.79,-36.87
1078.8,9.019607843137255,-13.0,-295.0,11.5,26.85,-24.76
1078.85,-6.980392156862745,-29.0,-218.0,0.44,8.9,15.8
1078.9,206.52941176470588,19.0,-264.0,16.5,-17.97,22.1
1078.95,70.03921568627452,101.0,-110.0,-59.82,4.73,65.81
1079.0,9.019607843137255,-94.0,-70.98039215686275,-52.51,23.14,127.83
1079.05,-259.0,199.0,-264.0,-51.53,85.76,148.2
1079.1,81.50980392156863,-149.50980392156862,-67.49019607843137,33.41,129.16,196.85
1079.15,-61.490196078431374,-165.50980392156862,236.01960784313727,51.54,174.76,233.53
1079.2,-45.490196078431374,79.49019607843137,175.01960784313727,-7.95,163.91,189.36
1079.25,184.01960784313727,-67.50980392156863,163.50980392156862,3.55,67.8,83.59
1079.3,-139.94117647058823,-62.0,-246.50980392156862,-6.9,12.85,-1.27
1079.35,317.52941176470586,286.5098039215686,320.0,-13.52,-24.59,-30.6
1079.4,-75.50980392156863,90.50980392156863,0.49019607843137253,24.17,-39.46,-66.41
1079.45,-177.01960784313727,9.509803921568627,-199.50980392156862,33.72,-74.01,-153.59
1079.5,258.4901960784314,237.50980392156862,212.0,78.03,42.08,-170.46
1079.55,258.4901960784314,-209.52941176470588,-121.47058823529412,-125.73,192.16,-12.47
1079.6,210.49019607843138,-111.52941176470588,63.529411764705884,-78.3,155.06,-33.16
1079.65,90.0,209.49019607843138,-67.49019607843137,-69.31,78.48,-43.34
1079.7,-197.98039215686273,150.0,289.0,-31.16,47.71,-42.71
1079.75,-61.490196078431374,-94.0,-33.0,-19.26,51.49,23.39
1079.8,-275.0,-160.0,-80.0,16.99,34.06,125.28
1079.85,161.50980392156862,150.0,-280.0,37.4,51.18,272.87
1079.9,-29.49019607843137,-106.01960784313725,-24.980392156862745,105.26,98.95,316.27
1079.95,2.5098039215686274,-241.05882352941177,-190.45098039215685,-36.06,89.08,281.94
1080.0,317.52941176470586,-143.52941176470588,-317.98039215686276,0.72,-63.86,159.16
1080.05,94.52941176470588,-116.50980392156863,-95.0,-32.66,-140.72,30.99
1080.1,201.0,-127.0,0.49019607843137253,-100.91,-163.61,-90.21
1080.15,-43.509803921568626,-105.49019607843137,-165.01960784313727,-10.54,-176.1,-217.36
1080.2,-27.50980392156863,270.5098039215686,-76.50980392156863,1.31,-200.92,300.94
1080.25,-91.50980392156863,58.509803921568626,58.0,-24.12,-59.24,-171.37
1080.3,83.49019607843137,-252.54901960784315,-100.94117647058823,-205.32,65.46,-53.91
1080.35,51.490196078431374,-45.529411764705884,321.03921568627453,-73.26,88.14,-74.04
1080.4,-13.490196078431373,144.49019607843138,-160.49019607843138,-65.04,65.56,-48.94
1080.45,161.50980392156862,297.0,-3.0,-62.06,96.22,4.91
1080.5,-179.0,-13.0,-49.0,-91.46,121.63,58.64
1080.55,-275.0,-94.0,-49.0,-40.12,131.01,164.79
1080.6,-61.490196078431374,-214.50980392156862,178.50980392156862,112.58,100.42,278.79
1080.65,18.50980392156863,-284.54901960784315,163.54901960784315,-42.74,84.81,311.9
1080.7,-252.49019607843138,-100.03921568627452,-32.96078431372549,-29.69,-52.13,278.26
1080.75,142.52941176470588,193.49019607843138,101.50980392156863,2.33,-129.38,102.6
1080.8,256.5098039215686,-78.0,273.0,-20.76,-134.21,-14.08
1080.85,313.0,237.50980392156862,215.49019607843138,-56.67,-102.08,-125.45
1080.9,-11.509803921568627,205.50980392156862,-304.01960784313724,26.34,-111.56,-261.22
1080.95,-27.50980392156863,-209.0,227.0,-65.14,-29.31,-241.3
1081.0,115.49019607843137,8.980392156862745,-209.98039215686273,-132.73,90.69,-26.79
1081.05,-91.50980392156863,-121.54901960784314,-5.450980392156863,-73.61,104.55,-15.0
1081.1,-6.980392156862745,-187.01960784313727,-193.98039215686273,-11.56,88.1,-41.0
1081.15,-77.49019607843137,-45.0,-172.0,12.72,58.53,-36.14
1081.2,240.50980392156862,-127.0,166.0,32.36,36.93,13.87
1081.25,-259.0,-209.0,212.0,-25.07,-14.68,47.82
1081.3,-29.49019607843137,-176.0,119.0,56.72,-27.81,141.9
1081.35,311.01960784313724,177.49019607843138,-252.49019607843138,-2.04,55.03,242.59
1081.4,-133.98039215686273,-274.05882352941177,-5.450980392156863,-2.39,24.89,213.61
1081.45,6.03921568627451,68.47058823529412,186.52941176470588,19.41,-52.1,113.02
1081.5,57.01960784313726,-312.5098039215686,239.50980392156862,55.98,-92.91,21.36
1081.55,-84.0,-111.0,135.0,30.15,-82.9,-45.66
1081.6,-186.50980392156862,172.50980392156862,215.49019607843138,6.95,-86.15,-194.09
1081.65,-273.01960784313724,254.50980392156862,123.49019607843137,-39.77,-130.74,-270.25
1081.7,83.49019607843137,-94.0,73.0,-185.23,45.47,-77.33
1081.75,177.50980392156862,-110.05882352941177,6.0588235294117645,-155.44,59.16,-44.47
1081.8,123.54901960784314,-45.529411764705884,186.52941176470588,-49.99,88.07,-89.02
1081.85,-86.98039215686275,133.0,-113.49019607843137,-29.48,78.27,-114.05
1081.9,65.50980392156863,-62.0,-156.0,62.14,57.16,-24.34
1081.95,-306.0,-62.0,73.0,-36.09,-1.35,66.44
1082.0,-275.0,52.0,212.0,172.57,-9.64,85.02
1082.05,-236.49019607843138,313.0,221.01960784313727,-70.71,118.1,93.25
1082.1,25.019607843137255,313.0,-124.96078431372548,-39.91,28.71,83.17
1082.15,-54.98039215686274,-84.50980392156863,-132.98039215686273,59.34,-17.87,21.29
1082.2,-267.4901960784314,-165.50980392156862,-67.49019607843137,81.08,-38.76,-54.9
1082.25,224.50980392156862,-296.5098039215686,135.0,10.31,-20.21,-166.02
1082.3,-116.0,-263.5098039215686,-289.01960784313724,-6.59,-14.23,-294.23
1082.35,-283.4901960784314,264.0,215.49019607843138,-103.5,-65.4,292.39
1082.4,-101.98039215686275,-116.50980392156863,304.0,-256.21,5.96,-43.77
1082.45,168.01960784313727,-198.50980392156862,275.03921568627453,-235.98,57.34,-110.13
1082.5,177.50980392156862,248.0,-224.98039215686273,-169.58,100.53,-189.19
1082.55,65.50980392156863,215.0,116.50980392156863,-124.57,118.69,-167.0
1082.6,216.01960784313727,84.0,178.50980392156862,-76.1,78.3,-91.33
1082.65,-260.98039215686276,-111.0,-79.0,-9.53,47.61,-18.32
1082.7,206.52941176470588,35.0,255.50980392156862,10.62,12.89,-100.57
1082.75,298.54901960784315,-29.0,221.01960784313727,-231.81,143.23,-1.66
1082.8,245.0392156862745,68.0,-313.4901960784314,-213.72,92.9,-5.76
1082.85,213.0392156862745,-296.5098039215686,70.50980392156863,-102.0,60.87,-67.92
1082.9,-95.47058823529412,-149.50980392156862,239.50980392156862,-118.83,63.04,-99.87
1082.95,-0.47058823529411764,177.49019607843138,-64.0,-83.06,59.44,-103.13
1083.0,-276.98039215686276,46.490196078431374,-156.0,-128.98,53.21,-121.01
1083.05,224.50980392156862,-45.0,270.5098039215686,-140.57,16.74,-154.61
1083.1,281.0,-258.0,-141.0,-113.37,-44.05,-182.19
1083.15,-186.50980392156862,123.50980392156863,-295.0,-65.63,-45.87,-157.38
1083.2,217.0,25.50980392156863,-310.0,-93.11,-26.62,-82.93
1083.25,-68.0,74.50980392156863,-3.0,-52.93,-36.24,-45.9
1083.3,-38.98039215686274,313.0,-295.0,-64.09,-44.19,-73.73
1083.35,-155.94117647058823,-122.01960784313725,-310.0,-63.04,-41.49,-70.61
1083.4,247.01960784313727,8.980392156862745,-113.49019607843137,-56.11,1.48,-4.11
1083.45,51.490196078431374,-296.5098039215686,55.509803921568626,27.21,11.77,17.96
1083.5,-3.019607843137255,254.50980392156862,-36.490196078431374,71.77,27.8,10.33
1083.55,99.49019607843137,-203.49019607843138,55.509803921568626,93.22,51.21,3.54
1083.6,131.49019607843138,-182.50980392156862,86.50980392156863,19.9,54.68,-27.81
1083.65,-179.0,-61.529411764705884,239.50980392156862,-9.11,7.22,-23.82
1083.7,253.52941176470588,199.94117647058823,-187.0,14.19,-37.33,-3.03
1083.75,-213.98039215686273,-127.52941176470588,-110.0,-60.77,-23.82,38.89
1083.8,-93.49019607843137,199.0,-129.49019607843138,-99.55,-4.78,95.49
1083.85,81.50980392156863,-241.0,-310.0,-17.3,37.46,165.56
1083.9,2.5098039215686274,243.01960784313727,-267.4901960784314,7.12,102.03,228.07
1083.95,-93.49019607843137,303.5098039215686,236.01960784313727,-30.11,114.77,218.79
1084.0,231.01960784313727,-307.0,-49.0,-75.92,50.23,120.13
1084.05,6.03921568627451,-290.05882352941177,22.058823529411764,-34.45,-1.0,32.87
1084.1,72.01960784313725,117.47058823529412,-244.47058823529412,-7.6,-19.27,-51.99
1084.15,281.0,-133.50980392156862,-98.49019607843137,30.92,-7.96,-84.4
1084.2,-241.01960784313727,-225.0,255.50980392156862,26.72,-12.69,-147.54
1084.25,194.49019607843138,-127.0,-141.0,244.28,-41.39,-174.39
1084.3,-289.01960784313724,-192.0,320.0,-194.64,218.41,0.85
1084.35,99.49019607843137,95.49019607843137,-160.49019607843138,-142.46,153.97,37.39
1084.4,145.50980392156862,297.94117647058823,209.54901960784315,-7.36,88.73,38.3
1084.45,-22.980392156862745,199.47058823529412,171.52941176470588,-9.95,98.36,23.53
1084.5,177.50980392156862,-198.50980392156862,-295.0,-95.8,111.76,71.3
1084.55,49.509803921568626,303.5098039215686,273.0,102.81,27.1,107.84
1084.6,-252.49019607843138,-7.490196078431373,169.49019607843138,123.08,62.59,239.34
1084.65,-156.49019607843138,74.50980392156863,-138.50980392156862,66.41,143.09,-312.53
1084.7,88.01960784313725,-78.0,316.5098039215686,-90.8,102.17,277.14
1084.75,174.52941176470588,193.9607843137255,-5.450980392156863,-48.24,-21.33,139.83
1084.8,-77.49019607843137,-18.03921568627451,214.0392156862745,15.59,-129.1,-41.42
1084.85,-234.50980392156862,-116.50980392156863,-206.49019607843138,-46.91,-153.88,-149.57
1084.9,51.490196078431374,19.0,-156.0,70.3,-156.19,-287.19
1084.95,4.490196078431373,-143.0,58.0,127.49,-129.73,-320.23
1085.0,226.49019607843138,319.5098039215686,-261.5098039215686,-113.93,25.28,-140.79
1085.05,-320.01960784313724,313.0,-141.0,-233.53,115.65,-21.51
1085.1,-186.50980392156862,-110.05882352941177,-201.9607843137255,-101.47,119.74,-21.86
1085.15,104.01960784313725,95.96078431372548,-182.47058823529412,-80.54,105.92,-66.41
1085.2,65.50980392156863,79.49019607843137,-129.49019607843138,28.47,92.34,19.22
1085.25,224.50980392156862,-111.0,-49.0,25.22,3.44,93.95
1085.3,-124.49019607843137,123.50980392156863,30.49019607843137,55.53,6.31,270.91
1085.35,49.509803921568626,-23.49019607843137,92.49019607843137,98.75,66.05,325.54
1085.4,-77.49019607843137,-127.0,-33.0,-69.73,83.31,246.76
1085.45,184.01960784313727,-73.01960784313725,-270.98039215686276,2.19,-41.6,149.7
1085.5,-229.98039215686273,-116.03921568627452,194.54901960784315,-5.68,-110.86,19.92
1085.55,90.0,-73.01960784313725,-209.98039215686273,3.17,-134.63,-96.97
1085.6,-313.5098039215686,232.0,-113.49019607843137,8.63,-136.83,-252.02
1085.65,-107.50980392156863,-143.0,-310.0,127.87,-104.07,-315.58
1085.7,290.4901960784314,-143.0,43.0,-228.28,5.26,-163.33
1085.75,187.98039215686273,166.0,150.0,-114.67,66.19,-22.0
1085.8,60.98039215686274,-149.0392156862745,267.01960784313724,-66.44,83.03,-43.56
1085.85,-172.49019607843138,205.45098039215685,140.52941176470588,12.86,65.7,-46.15
1085.9,-108.49019607843137,-78.52941176470588,-252.49019607843138,-3.51,52.89,10.16
1085.95,-124.49019607843137,-51.509803921568626,-218.0,-13.34,10.26,87.86
1086.0,129.50980392156862,-274.0,166.0,-50.09,-9.33,194.4
1086.05,-61.490196078431374,107.50980392156863,-307.5098039215686,100.71,22.23,290.26
1086.1,-227.0,237.50980392156862,227.0,-47.75,74.1,261.42
1086.15,-77.49019607843137,128.49019607843138,-83.49019607843137,-38.37,-47.48,193.7
1086.2,190.52941176470588,68.47058823529412,198.0392156862745,9.89,-120.0,73.26
1086.25,-188.49019607843138,89.98039215686275,217.52941176470588,26.34,-134.03,-24.62
1086.3,34.509803921568626,68.0,-221.49019607843138,-11.42,-127.87,-176.35
1086.35,11.0,-241.0,-264.0,-0.15,-116.43,-248.27
1086.4,201.0,107.50980392156863,258.0,-51.46,-57.91,-221.39
1086.45,177.50980392156862,-225.0,58.0,-106.86,50.79,-26.69
1086.5,-223.47058823529412,68.47058823529412,70.50980392156863,-52.65,43.9,-36.87
1086.55,-54.98039215686274,138.98039215686273,98.01960784313725,8.31,63.46,-73.45
1086.6,42.0,144.49019607843138,147.50980392156862,39.74,37.39,-33.69
1086.65,178.49019607843138,-78.0,-141.0,79.08,-17.69,103.26
1086.7,19.49019607843137,-78.0,196.0,34.6,-81.39,251.34
1086.75,42.0,52.0,196.0,145.34,-67.95,326.03
1086.8,-29.49019607843137,-18.50980392156863,135.0,-60.56,34.76,321.13
1086.85,-236.49019607843138,-116.50980392156863,-64.0,-40.01,-127.56,242.14
1086.9,279.01960784313724,-263.5098039215686,89.0,-18.56,-184.19,145.96
1086.95,-220.49019607843138,-111.0,-95.0,33.3,-217.3,73.05
1087.0,247.01960784313727,-62.0,-172.0,21.61,-164.76,45.47
1087.05,-22.980392156862745,215.0,-233.0,27.42,-185.62,-60.53
1087.1,-48.470588235294116,264.0,-310.0,56.37,-183.03,-108.31
1087.15,-254.47058823529412,166.0,255.50980392156862,-50.37,-61.27,6.76
1087.2,-16.470588235294116,-219.49019607843138,-129.49019607843138,-38.44,-87.24,51.46
1087.25,-238.47058823529412,68.0,298.01960784313724,-21.57,-114.19,21.99
1087.3,54.03921568627451,264.0,-172.0,-67.84,-142.01,63.43
1087.35,-79.47058823529412,-182.50980392156862,193.50980392156862,-69.62,-150.2,29.72
1087.4,9.019607843137255,166.0,-264.0,-90.55,-100.82,-115.87
1087.45,34.509803921568626,133.0,-79.0,-123.35,-22.7,-52.62
1087.5,263.01960784313724,-78.0,-156.0,-147.08,-23.96,-31.94
1087.55,9.019607843137255,193.49019607843138,55.509803921568626,-113.16,-63.3,0.25
1087.6,-156.49019607843138,-318.01960784313724,-83.49019607843137,-134.58,-106.59,89.05
1087.65,58.0,-149.50980392156862,-279.0,-52.16,-152.34,100.14
1087.7,124.98039215686275,248.0,-126.0,-11.87,-160.95,33.15
1087.75,124.98039215686275,68.0,-110.0,143.55,-187.72,-73.83
1087.8,19.49019607843137,-2.5098039215686274,-37.490196078431374,198.99,-190.07,-63.05
1087.85,-252.49019607843138,248.47058823529412,124.52941176470588,263.01,-142.61,-38.03
1087.9,126.52941176470588,-241.05882352941177,302.54901960784315,41.84,-44.08,-77.16
1087.95,-9.96078431372549,-165.0392156862745,267.01960784313724,5.3,19.92,-95.99
1088.0,25.019607843137255,177.49019607843138,-30.50980392156863,-21.74,55.38,-64.45
1088.05,-315.4901960784314,-94.0,-273.01960784313724,-82.57,60.0,-14.33
1088.1,-29.49019607843137,-219.49019607843138,-135.01960784313727,1.7,0.99,71.83
1088.15,-299.4901960784314,303.5098039215686,-153.50980392156862,-85.16,13.69,24.12
1088.2,-38.98039215686274,-94.0,301.5098039215686,-214.87,-31.59,67.35
1088.25,-302.47058823529414,95.96078431372548,-190.45098039215685,-104.66,-47.72,81.21
1088.3,-236.49019607843138,242.9607843137255,198.0392156862745,-103.82,-62.21,66.68
1088.35,-313.5098039215686,-67.50980392156863,147.50980392156862,-4.45,-47.06,14.57
1088.4,290.4901960784314,52.0,104.0,-18.35,-6.67,-56.26
1088.45,-305.01960784313724,270.5098039215686,-3.0,-28.29,71.9,-94.17
1088.5,-320.01960784313724,205.50980392156862,273.0,-48.76,139.66,-39.6
1088.55,-59.509803921568626,-106.01960784313725,313.01960784313724,126.89,174.27,65.25
1088.6,-306.0,238.92156862745097,194.54901960784315,-59.93,178.68,89.01
1088.65,-181.98039215686273,-258.52941176470586,144.01960784313727,-8.2,118.87,112.57
1088.7,320.5098039215686,183.0,-33.0,9.57,31.3,161.67
1088.75,177.50980392156862,319.5098039215686,-307.5098039215686,-5.54,4.1,318.93
1088.8,-236.49019607843138,-23.49019607843137,276.4901960784314,52.87,95.94,-248.76
1088.85,161.50980392156862,172.50980392156862,-230.50980392156862,-4.14,194.47,-298.28
1088.9,104.01960784313725,35.0,116.50980392156863,-243.99,227.4,274.16
1088.95,174.52941176470588,-290.05882352941177,268.05882352941177,-137.21,56.92,167.94
1089.0,320.5098039215686,166.47058823529412,309.52941176470586,-55.76,134.02,33.33
1089.05,-298.5098039215686,248.0,255.50980392156862,23.26,75.89,-150.34
1089.1,290.4901960784314,68.0,43.0,2.43,47.33,-282.96
1089.15,258.4901960784314,-209.0,243.0,-20.69,-12.16,-318.76
1089.2,-225.01960784313727,-29.0,119.0,53.39,-13.28,-241.55
1089.25,4.490196078431373,-307.52941176470586,313.01960784313724,-18.94,57.09,-30.57
1089.3,18.50980392156863,232.94117647058823,44.03921568627451,-2.84,-46.46,9.25
1089.35,-299.4901960784314,-209.52941176470588,5.019607843137255,38.97,-107.5,25.42
1089.4,320.5098039215686,281.0,270.5098039215686,72.89,-144.04,62.94
1089.45,-290.0,-225.0,304.0,7.96,-68.76,107.42
1089.5,311.01960784313724,41.509803921568626,-212.01960784313727,17.9,-80.41,198.67
1089.55,224.50980392156862,286.5098039215686,92.49019607843137,-72.7,-45.24,-325.58
1089.6,247.01960784313727,150.0,239.50980392156862,-132.03,23.98,266.32
1089.65,-260.98039215686276,-257.05882352941177,-143.45098039215685,-96.89,46.7,149.14
1089.7,129.50980392156862,-78.52941176470588,-59.470588235294116,-0.81,87.37,0.36
1089.75,186.0,-84.50980392156863,-221.49019607843138,30.43,79.04,-104.07
1089.8,297.0,-127.0,316.5098039215686,92.31,-17.97,-282.22
1089.85,-320.01960784313724,-13.0,104.0,8.8,-80.1,324.14
1089.9,187.98039215686273,84.0,196.0,91.93,-73.17,-81.95
1089.95,306.4901960784314,281.47058823529414,236.01960784313727,31.1,-49.26,-52.55
1090.0,2.5098039215686274,205.45098039215685,309.52941176470586,-55.76,134.02,-96.72
1090.05,-204.49019607843138,36.470588235294116,255.50980392156862,23.26,75.89,-79.5
1090.1,-220.49019607843138,-116.50980392156863,43.0,2.43,47.33,11.17
1090.15,129.50980392156862,-160.0,243.0,-20.69,-12.16,107.6
1090.2,208.50980392156862,205.50980392156862,119.0,53.39,-13.28,205.91
1090.25,-131.0,-209.0,313.01960784313724,-18.94,57.09,252.5
1090.3,-93.49019607843137,111.49019607843137,44.03921568627451,-2.84,-46.46,208.71
1090.35,-213.98039215686273,-209.52941176470588,5.019607843137255,38.97,-107.5,120.16
1090.4,311.01960784313724,187.98039215686273,270.5098039215686,72.89,-144.04,24.12
1090.45,-252.49019607843138,281.0,304.0,7.96,-68.76,-70.96
1090.5,-186.50980392156862,303.5098039215686,-212.01960784313727,17.9,-80.41,-224.02
1090.55,4.490196078431373,286.5098039215686,92.49019607843137,-72.7,-45.24,-299.76
1090.6,104.01960784313725,-192.52941176470588,239.50980392156862,-132.03,23.98,-77.96
1090.65,31.529411764705884,-138.01960784313727,-143.45098039215685,-96.89,46.7,-43.07
1090.7,168.01960784313727,128.49019607843138,-59.470588235294116,-0.81,87.37,-111.14
1090.75,58.0,-247.50980392156862,-221.49019607843138,30.43,79.04,-85.42
1090.8,19.49019607843137,166.0,316.5098039215686,92.31,-17.97,55.94
1090.85,249.0,199.0,104.0,8.8,-80.1,186.87
1090.9,256.5098039215686,215.0,196.0,91.93,-73.17,245.46
1090.95,-140.49019607843138,-133.50980392156862,236.01960784313727,31.1,-49.26,273.74
1091.0,-140.49019607843138,232.0,109.52941176470588,-27.17,-150.17,213.54
1091.05,-86.98039215686275,-143.0,-313.4901960784314,15.03,-222.41,129.58
1091.1,-315.4901960784314,52.0,-79.0,32.08,-235.46,61.92
1091.15,-308.98039215686276,150.0,273.0,50.66,-197.8,31.33
1091.2,6.03921568627451,-209.0,-138.50980392156862,83.42,-188.95,-25.08
1091.25,133.0392156862745,-78.0,89.0,14.3,-128.75,-40.3
1091.3,22.03921568627451,96.01960784313725,-160.49019607843138,-65.91,-101.03,-9.05
1091.35,54.03921568627451,150.0,-209.98039215686273,52.8,-170.64,45.54
1091.4,276.03921568627453,-62.0,-147.98039215686273,48.25,-166.16,43.13
1091.45,110.52941176470588,-78.0,-52.490196078431374,75.41,-163.57,94.37
1091.5,206.52941176470588,133.0,-3.0,50.63,-111.25,45.3
1091.55,-197.98039215686273,226.49019607843138,-184.50980392156862,176.24,-40.83,-24.1
1091.6,-227.0,-100.50980392156863,101.50980392156863,73.62,-49.75,-13.49
1091.65,-273.01960784313724,133.0,270.5098039215686,106.07,-117.62,-65.01
1091.7,306.4901960784314,-111.0,-129.49019607843138,143.66,-133.61,-13.39
1091.75,-241.01960784313727,-143.0,-172.0,198.61,-154.16,36.93
1091.8,-123.50980392156863,248.0,73.0,152.69,-150.2,9.95
1091.85,-131.0,-214.0392156862745,89.0,112.89,-139.32,-51.33
1091.9,-238.47058823529412,264.94117647058823,-3.0,122.38,-147.23,-63.61
1091.95,-70.98039215686275,24.980392156862745,-187.0,229.55,-151.11,-42.72
1092.0,81.50980392156863,166.0,-3.0,122.59,-31.87,-62.07
1092.05,224.50980392156862,156.50980392156862,-156.0,121.22,11.49,-105.96
1092.1,161.50980392156862,270.5098039215686,-80.0,45.2,53.17,-80.73
1092.15,81.50980392156863,303.5098039215686,-249.0,-100.0,46.0,-26.69
1092.2,263.01960784313724,52.0,-18.0,56.37,-52.48,34.9
1092.25,-48.470588235294116,3.9411764705882355,-95.0,19.58,-50.35,45.54
1092.3,-45.490196078431374,-312.03921568627453,-67.49019607843137,26.58,-36.17,113.55
1092.35,11.0,101.0,27.0,-25.77,20.03,132.31
1092.4,-59.509803921568626,-307.0,89.0,-126.18,70.43,85.65
1092.45,242.49019607843138,-143.0,209.50980392156862,-147.53,112.95,70.74
1092.5,163.49019607843138,-133.50980392156862,-110.0,-181.87,160.1,19.19
1092.55,297.0,-269.01960784313724,-233.0,-203.78,159.92,13.59
1092.6,-195.0,-94.52941176470588,-33.0,-67.42,114.39,27.34
1092.65,-22.980392156862745,-143.05882352941177,-280.0,5.76,98.46,103.12
1092.7,-108.49019607843137,-155.01960784313727,193.50980392156862,53.85,53.56,161.53
1092.75,320.5098039215686,84.0,286.5098039215686,106.52,34.87,295.2
1092.8,18.50980392156863,221.50980392156862,-52.490196078431374,245.33,-2.61,-259.82
1092.85,-13.490196078431373,-236.49019607843138,-178.98039215686273,141.21,87.86,313.64
1092.9,-108.49019607843137,254.50980392156862,1.5294117647058822,5.97,20.69,204.44
1092.95,152.01960784313727,199.0,-261.5098039215686,48.04,-28.19,51.67
1093.0,-292.98039215686276,-78.05882352941177,-313.45098039215685,-34.52,-62.11,-66.94
1093.05,-179.0,85.47058823529412,-86.98039215686275,8.03,-83.07,-140.47
1093.1,201.0,166.0,255.50980392156862,-2.91,-102.18,-228.46
1093.15,-107.50980392156863,-78.0,12.0,-96.08,-53.71,-226.4
1093.2,210.49019607843138,35.0,-79.0,-172.1,102.63,-45.83
1093.25,306.4901960784314,-127.0,166.0,-194.36,131.71,2.81
1093.3,-43.509803921568626,204.98039215686273,-98.49019607843137,-163.32,135.98,-50.0
1093.35,65.50980392156863,-29.058823529411764,-152.47058823529412,-281.55,94.44,-45.1
1093.4,231.01960784313727,68.47058823529412,52.01960784313726,-117.05,0.85,-19.13
1093.45,-243.0,-18.50980392156863,239.50980392156862,-44.63,-170.57,159.22
1093.5,-290.0,-45.0,12.0,278.65,-110.44,182.6
1093.55,-299.4901960784314,-138.49019607843138,261.4901960784314,129.17,-126.79,192.96
1093.6,-140.49019607843138,25.50980392156863,30.49019607843137,163.71,-11.11,266.74
1093.65,104.01960784313725,101.0,166.0,42.19,-35.26,170.0
1093.7,-200.9607843137255,-2.0392156862745097,232.52941176470588,84.93,-89.55,42.39
1093.75,-279.96078431372547,52.470588235294116,-109.96078431372548,71.45,-82.51,-44.12
1093.8,224.50980392156862,-236.01960784313727,113.01960784313725,-13.52,-71.0,-165.04
1093.85,-313.5098039215686,-67.50980392156863,116.50980392156863,43.24,-79.61,-273.75
1093.9,194.49019607843138,313.0,-249.0,-25.42,-26.97,326.9
1093.95,267.98039215686276,-94.0,-203.0,-242.63,110.96,-21.19
1094.0,-11.509803921568627,117.0,221.01960784313727,-148.65,84.67,-16.01
1094.05,139.54901960784315,-198.50980392156862,-47.96078431372549,-61.01,98.85,-47.72
1094.1,133.0392156862745,117.0,-117.98039215686275,-49.81,82.26,-48.53
1094.15,-299.4901960784314,19.0,-67.49019607843137,86.78,37.84,43.55
1094.2,-243.0,19.0,-49.0,-38.23,-35.96,130.87
1094.25,-84.0,166.0,-95.0,94.41,-32.78,234.19
1094.3,-275.0,19.0,-295.0,92.49,18.49,261.98
1094.35,272.5098039215686,-78.0,-36.490196078431374,0.09,8.13,192.86
1094.4,-29.49019607843137,52.0,-40.98039215686274,76.49,-79.22,114.84
1094.45,-227.0,215.0,-147.98039215686273,132.07,-128.78,14.88
1094.5,288.5098039215686,35.0,-298.4901960784314,81.15,-104.95,-55.07
1094.55,-163.0,35.0,-264.0,8.7,-104.7,-235.43
1094.6,27.0,-29.0,120.0,41.18,-149.64,287.04
1094.65,-306.0,183.0,43.0,22.52,-149.99,320.36
1094.7,34.509803921568626,313.0,-310.0,-264.82,49.01,-85.77
1094.75,41.01960784313726,193.49019607843138,-298.4901960784314,-143.75,63.71,-111.0
1094.8,-315.4901960784314,307.4901960784314,159.01960784313727,-46.21,60.98,-158.32
1094.85,97.50980392156863,-302.01960784313724,221.01960784313727,-23.28,71.58,-124.02
1094.9,-131.0,-236.01960784313727,-129.49019607843138,-26.75,71.37,-51.15
1094.95,-163.0,-67.50980392156863,-144.49019607843138,199.38,55.17,-16.47
1095.0,138.0,-231.50980392156862,-6.490196078431373,-36.83,196.88,-74.85
1095.05,-227.0,101.0,-21.49019607843137,-33.99,194.64,-61.23
1095.1,-299.4901960784314,19.0,-36.490196078431374,-3.37,88.03,-112.4
1095.15,-127.47058823529412,35.0,24.50980392156863,-0.46,44.18,-121.89
1095.2,15.529411764705882,-13.0,-313.4901960784314,23.85,42.08,-126.68
1095.25,285.52941176470586,-219.49019607843138,-317.98039215686276,20.6,75.54,-111.56
1095.3,-318.47058823529414,-2.5098039215686274,248.52941176470588,32.08,57.3,-99.38
1095.35,15.529411764705882,-312.5098039215686,301.5098039215686,-46.38,48.03,-123.25
1095.4,-213.98039215686273,-312.5098039215686,144.01960784313727,-54.29,-27.67,-121.99
1095.45,72.01960784313725,30.49019607843137,129.01960784313727,-59.26,-12.86,-82.48
1095.5,-117.98039215686275,-187.01960784313727,263.52941176470586,-60.35,-24.87,-93.71
1095.55,-213.98039215686273,-220.01960784313727,144.01960784313727,-81.84,-37.75,-150.24
1095.6,81.50980392156863,117.0,304.0,-100.81,-48.77,-202.25
1095.65,320.5098039215686,117.0,-261.5098039215686,-225.65,-106.84,-253.31
1095.7,-131.0,-181.98039215686273,172.98039215686273,-301.18,-113.03,-250.93
1095.75,-45.490196078431374,292.01960784313724,-258.01960784313724,-276.44,-125.11,-228.53
1095.8,168.01960784313727,74.50980392156863,243.0,-249.21,-119.47,-201.02
1095.85,-247.9607843137255,3.4705882352941178,-13.470588235294118,-110.61,-129.94,-161.79
1095.9,-279.96078431372547,8.980392156862745,-305.47058823529414,-61.92,-70.93,-90.32
1095.95,-140.49019607843138,226.49019607843138,159.01960784313727,-12.05,-16.29,-45.59
1096.0,170.0,313.0,58.0,-46.84,20.59,-31.1
1096.05,226.49019607843138,-160.0,-49.0,-35.57,0.64,-55.53
1096.1,242.49019607843138,-258.0,104.0,-31.23,-16.61,-50.31
1096.15,242.49019607843138,-94.0,-280.0,44.57,-49.54,17.96
1096.2,27.0,-155.01960784313727,1.5294117647058822,-160.2,-4.74,-7.16
1096.25,-245.98039215686273,107.45098039215686,-177.94117647058823,-198.81,-32.01,53.38
1096.3,-6.980392156862745,-290.52941176470586,-24.980392156862745,-15.44,-8.17,81.07
1096.35,320.5098039215686,-214.50980392156862,-264.0,36.28,59.09,77.88
1096.4,-45.490196078431374,270.5098039215686,230.49019607843138,-40.15,124.43,154.15
1096.45,-299.4901960784314,145.01960784313727,18.980392156862745,69.7,203.99,221.66
1096.5,-220.49019607843138,-258.0,77.49019607843137,-2.04,222.12,247.25
1096.55,152.01960784313727,303.5098039215686,27.0,-93.88,135.49,216.8
1096.6,108.54901960784314,264.94117647058823,-58.431372549019606,-101.12,4.73,70.15
1096.65,136.01960784313727,264.47058823529414,-228.47058823529412,-36.48,-141.94,-107.26
1096.7,217.0,-296.5098039215686,70.50980392156863,48.28,-212.01,-257.13
1096.75,194.49019607843138,84.0,-3.0,12.97,-231.54,-305.22
1096.8,194.49019607843138,-160.0,227.0,-17.75,-78.52,-207.77
1096.85,306.4901960784314,-127.0,289.0,-32.91,163.0,-6.49
1096.9,-43.509803921568626,-62.0,-80.0,5.9,175.36,10.12
1096.95,158.52941176470588,113.43137254901961,-274.4313725490196,-45.89,135.42,7.43
1097.0,-0.47058823529411764,-12.529411764705882,306.03921568627453,-7.46,-51.4,21.81
1097.05,224.50980392156862,248.0,-310.0,18.74,-140.93,39.73
1097.1,-52.0,-225.0,58.0,19.51,-99.28,118.76
1097.15,193.50980392156862,205.50980392156862,184.49019607843138,8.1,-38.1,321.55
1097.2,-243.0,58.509803921568626,230.49019607843138,34.84,-55.6,-262.13
1097.25,-131.0,-127.0,273.0,100.57,-15.87,-326.91
1097.3,-140.49019607843138,-280.5098039215686,-55.98039215686274,-303.07,171.79,176.9
1097.35,-120.96078431372548,-241.52941176470588,283.05882352941177,-9.46,55.52,-19.2
1097.4,27.0,-138.01960784313727,-224.98039215686273,3.76,37.04,-186.5
1097.45,297.0,-209.0,-310.0,-46.77,37.42,-316.66
1097.5,-234.50980392156862,319.5098039215686,73.0,49.02,24.19,296.49
1097.55,-59.509803921568626,68.0,166.0,-39.7,-15.8,-78.77
1097.6,258.4901960784314,-176.0,-246.50980392156862,-41.97,5.82,-10.83
1097.65,226.49019607843138,275.4901960784314,-67.49019607843137,79.12,70.74,-59.66
1097.7,-195.0,-203.07843137254903,22.058823529411764,-49.11,93.53,-52.66
1097.75,136.01960784313727,-225.52941176470588,17.529411764705884,40.65,-28.61,14.74
1097.8,304.5098039215686,-35.509803921568626,101.50980392156863,42.89,-90.39,53.0
1097.85,-306.0,-13.0,-3.0,39.71,-101.94,96.05
1097.9,-108.49019607843137,-274.0,107.49019607843137,-21.43,-63.54,223.83
1097.95,-45.490196078431374,172.50980392156862,215.49019607843138,29.77,-79.08,255.72
1098.0,224.50980392156862,-258.0,-138.50980392156862,-65.63,-88.43,182.25
1098.05,193.50980392156862,-225.0,224.50980392156862,-232.83,75.05,75.22
1098.1,-32.470588235294116,254.45098039215685,-147.94117647058823,-2.91,1.37,4.31
1098.15,265.0,-12.529411764705882,-13.470588235294118,-26.54,36.3,-134.84
1098.2,186.0,-263.5098039215686,-144.49019607843138,-47.43,56.67,-266.23
1098.25,-250.50980392156862,-29.0,301.5098039215686,66.17,37.7,315.77
1098.3,313.0,199.0,-95.0,32.81,21.71,31.51
1098.35,4.490196078431373,-192.0,258.0,49.58,-18.25,13.27
1098.4,226.49019607843138,117.0,104.0,245.75,-54.51,-95.5
1098.45,-177.01960784313727,-176.52941176470588,-178.98039215686273,16.5,83.73,-79.61
1098.5,104.01960784313725,297.47058823529414,-93.96078431372548,74.85,-6.81,-32.6
1098.55,224.50980392156862,-40.01960784313726,78.52941176470588,87.83,-75.86,81.35
1098.6,-179.0,-165.50980392156862,-52.490196078431374,93.43,-102.88,201.99
1098.65,-116.0,19.0,-49.0,88.01,-81.36,300.13
1098.7,-227.0,-62.0,243.0,75.62,-66.9,251.48
1098.75,11.0,-143.0,-215.50980392156862,109.71,-32.39,186.24
1098.8,-195.0,150.0,-264.0,0.72,-38.87,105.08
1098.85,11.0,117.0,113.01960784313725,-70.08,-26.93,10.58
1098.9,-267.4901960784314,13.490196078431373,63.529411764705884,-87.44,-64.17,-113.03
1098.95,240.50980392156862,-231.50980392156862,201.52941176470588,-81.7,-94.52,-219.43
1099.0,256.5098039215686,133.0,-138.50980392156862,-65.63,-88.43,-298.46
1099.05,-243.0,-45.0,224.50980392156862,-232.83,75.05,-113.1
1099.1,-116.0,35.0,-147.94117647058823,-2.91,1.37,-18.74
1099.15,-4.0,-13.0,-13.470588235294118,-26.54,36.3,-80.76
1099.2,249.0,19.0,-144.49019607843138,-47.43,56.67,-92.98
1099.25,-139.50980392156862,-231.50980392156862,301.5098039215686,66.17,37.7,-42.37
1099.3,208.50980392156862,-111.52941176470588,-95.0,32.81,21.71,55.8
1099.35,-254.47058823529412,-171.01960784313727,258.0,49.58,-18.25,134.9
1099.4,-38.98039215686274,13.490196078431373,104.0,245.75,-54.51,172.59
1099.45,-172.49019607843138,-149.50980392156862,-178.98039215686273,16.5,83.73,191.0
1099.5,97.50980392156863,133.0,-93.96078431372548,74.85,-6.81,164.02
1099.55,208.50980392156862,68.0,78.52941176470588,87.83,-75.86,134.83
1099.6,193.50980392156862,150.0,-52.490196078431374,93.43,-102.88,118.76
1099.65,-156.49019607843138,313.0,-49.0,88.01,-81.36,103.82
1099.7,-236.49019607843138,-296.5098039215686,243.0,75.62,-66.9,43.13
1099.75,-315.4901960784314,-247.50980392156862,-215.50980392156862,109.71,-32.39,-11.25
1099.8,-38.98039215686274,248.0,-264.0,0.72,-38.87,-94.1
1099.85,120.01960784313725,166.0,113.01960784313725,-70.08,-26.93,-65.33
1099.9,-236.49019607843138,-160.0,63.529411764705884,-87.44,-64.17,-33.16
1099.95,-283.4901960784314,-45.0,201.52941176470588,-81.7,-94.52,-55.32
1100.0,-220.49019607843138,-127.0,190.01960784313727,-155.23,-73.94,-82.83
1100.05,-267.4901960784314,-13.0,-129.49019607843138,-76.97,-61.44,-72.05
1100.1,-299.4901960784314,-111.0,55.509803921568626,-41.97,-40.37,-52.38
1100.15,-252.49019607843138,-45.0,86.50980392156863,21.47,-45.2,-5.65
1100.2,-299.4901960784314,3.0,301.5098039215686,58.29,-103.55,41.48
1100.25,-204.49019607843138,35.0,116.50980392156863,235.01,-206.13,12.4
1100.3,-140.49019607843138,150.0,-244.47058823529412,139.28,-72.4,101.47
1100.35,-236.49019607843138,199.0,171.52941176470588,199.48,-70.82,128.88
1100.4,-276.98039215686276,-263.5098039215686,267.01960784313724,218.66,-39.74,137.87
1100.45,57.01960784313726,-100.50980392156863,-144.49019607843138,133.19,-25.95,110.64
1100.5,72.01960784313725,-198.50980392156862,316.5098039215686,106.0,-31.31,56.32
1100.55,168.01960784313727,248.0,270.5098039215686,66.94,-47.69,-19.65
1100.6,-283.4901960784314,297.0,-295.0,15.45,-61.06,-75.06
1100.65,-220.49019607843138,248.0,-187.0,-11.98,-60.01,-68.34
1100.7,-252.49019607843138,281.0,-126.0,-54.29,-78.66,-37.26
1100.75,295.01960784313724,232.0,-264.0,-54.99,-85.38,-22.59
1100.8,263.01960784313724,281.0,-264.0,-66.61,-62.6,19.36
1100.85,120.01960784313725,117.0,39.509803921568626,-82.5,-45.66,30.7
1100.9,72.01960784313725,-94.0,193.50980392156862,-40.75,-47.9,14.64
1100.95,-54.98039215686274,-192.0,86.50980392156863,-18.38,-44.61,12.05
1101.0,295.01960784313724,-143.0,270.5098039215686,70.16,-34.84,10.54
1101.05,311.01960784313724,-290.0,255.50980392156862,78.14,-17.48,4.73
1101.1,279.01960784313724,286.5098039215686,-21.49019607843137,97.6,-7.16,-7.23
1101.15,-172.49019607843138,-176.0,70.50980392156863,74.36,15.2,-10.9
1101.2,-140.49019607843138,35.0,-52.490196078431374,66.9,32.21,-0.93
1101.25,-204.49019607843138,84.0,-52.490196078431374,78.73,39.66,5.99
1101.3,-236.49019607843138,68.0,-6.490196078431373,64.03,14.53,-14.72
1101.35,-220.49019607843138,35.0,55.509803921568626,86.47,31.16,-12.51
1101.4,-220.49019607843138,84.0,101.50980392156863,121.4,42.64,48.66
1101.45,-267.4901960784314,215.0,116.50980392156863,154.79,63.25,89.5
1101.5,279.01960784313724,248.0,193.50980392156862,110.23,91.64,104.59
1101.55,104.01960784313725,-280.5098039215686,-83.49019607843137,116.81,85.06,98.29
1101.6,-204.49019607843138,-280.5098039215686,39.509803921568626,99.66,74.52,75.36
1101.65,216.01960784313727,248.0,86.50980392156863,88.88,54.43,54.29
1101.7,216.01960784313727,101.0,55.509803921568626,55.49,38.3,52.09
1101.75,263.01960784313724,68.0,224.50980392156862,47.3,17.4,63.67
1101.8,311.01960784313724,52.0,239.50980392156862,6.98,1.37,65.81
1101.85,-252.49019607843138,133.0,301.5098039215686,-29.62,-25.22,41.38
1101.9,-188.49019607843138,166.0,-295.0,-52.86,-51.01,9.88
1101.95,-252.49019607843138,133.0,-264.0,-23.74,-80.66,10.44
1102.0,295.01960784313724,-143.0,270.5098039215686,-11.56,-68.16,-0.37
1102.05,311.01960784313724,-290.0,255.50980392156862,-118.94,-24.13,-65.78
1102.1,279.01960784313724,286.5098039215686,-21.49019607843137,-94.37,-20.46,-88.11
1102.15,-172.49019607843138,-176.0,70.50980392156863,-41.83,-28.19,-83.98
1102.2,-140.49019607843138,35.0,-52.490196078431374,-0.92,-27.98,-64.45
1102.25,-204.49019607843138,84.0,-52.490196078431374,9.82,-13.53,-46.04
1102.3,-236.49019607843138,68.0,-6.490196078431373,-27.83,18.24,-27.18
1102.35,-220.49019607843138,35.0,55.509803921568626,-44.32,34.03,-10.66
1102.4,-220.49019607843138,84.0,101.50980392156863,-40.29,26.33,4.24
1102.45,-267.4901960784314,215.0,116.50980392156863,-8.58,-18.53,17.79
1102.5,279.01960784313724,248.0,193.50980392156862,79.54,-34.49,47.43
1102.55,104.01960784313725,-280.5098039215686,-83.49019607843137,191.05,-31.48,96.12
1102.6,-204.49019607843138,-280.5098039215686,39.509803921568626,203.26,5.71,102.31
1102.65,216.01960784313727,248.0,86.50980392156863,147.58,51.11,93.14
1102.7,216.01960784313727,101.0,55.509803921568626,90.95,82.5,79.14
1102.75,263.01960784313724,68.0,224.50980392156862,39.88,92.62,66.93
1102.8,311.01960784313724,52.0,239.50980392156862,19.44,82.96,57.83
1102.85,-252.49019607843138,133.0,301.5098039215686,23.4,60.73,48.59
1102.9,-188.49019607843138,166.0,-295.0,14.33,44.11,40.26
1102.95,-252.49019607843138,133.0,-264.0,1.59,20.31,27.83
1103.0,279.01960784313724,133.0,-249.0,-25.73,-13.42,0.74
1103.05,136.01960784313727,68.0,-203.0,-66.16,-43.42,-43.49
1103.1,-70.98039215686275,-29.0,-156.0,-22.65,-64.84,-24.27
1103.15,263.01960784313724,101.0,193.50980392156862,24.66,-84.16,-10.73
1103.2,-61.490196078431374,19.0,255.50980392156862,-23.39,-65.85,-36.56
1103.25,311.01960784313724,-94.0,193.50980392156862,-65.81,-53.6,-69.74
1103.3,-204.49019607843138,-78.0,132.50980392156862,-81.45,-44.19,-85.94
1103.35,-188.49019607843138,35.0,147.50980392156862,-78.97,-41.7,-86.15
1103.4,-172.49019607843138,117.0,86.50980392156863,-67.0,-37.36,-72.54
1103.45,-267.4901960784314,183.0,70.50980392156863,-38.72,-34.98,-40.62
1103.5,-236.49019607843138,199.0,24.50980392156863,11.46,-38.31,-15.0
1103.55,-267.4901960784314,264.0,-6.490196078431373,9.33,-27.63,-1.42
1103.6,263.01960784313724,199.0,-52.490196078431374,47.27,-16.22,5.26
1103.65,72.01960784313725,232.0,-113.49019607843137,70.26,24.44,44.91
1103.7,152.01960784313727,215.0,-252.49019607843138,137.18,50.65,67.66
1103.75,216.01960784313727,264.0,-6.490196078431373,87.55,102.03,67.84
1103.8,88.01960784313725,68.0,-21.49019607843137,64.35,121.18,63.22
1103.85,247.01960784313727,117.0,163.50980392156862,32.53,125.31,55.59
1103.9,295.01960784313724,117.0,286.5098039215686,24.03,114.84,49.22
1103.95,-283.4901960784314,183.0,-295.0,12.76,87.02,44.07
1104.0,216.01960784313727,199.0,-187.0,10.76,49.88,45.44
1104.05,-315.4901960784314,199.0,-156.0,13.28,12.26,43.93
1104.1,-315.4901960784314,183.0,-141.0,-18.28,-14.23,29.51
1104.15,-267.4901960784314,84.0,-172.0,-44.81,-54.02,-10.41
1104.2,-204.49019607843138,19.0,-172.0,-64.3,-69.56,-36.21
1104.25,-315.4901960784314,68.0,-279.0,5.27,-100.75,-3.41
1104.3,-299.4901960784314,117.0,132.50980392156862,-10.54,-80.27,0.32
1104.35,120.01960784313725,-29.0,116.50980392156863,-78.48,-52.8,-36.63
1104.4,311.01960784313724,-143.0,147.50980392156862,-101.72,-34.74,-72.29
1104.45,-204.49019607843138,-29.0,86.50980392156863,-106.58,-30.75,-100.26
1104.5,247.01960784313727,68.0,116.50980392156863,-51.25,-47.65,-95.67
1104.55,-299.4901960784314,232.0,70.50980392156863,29.28,-63.96,-69.32
1104.6,-267.4901960784314,-280.5098039215686,-37.490196078431374,55.88,-61.9,-47.69
1104.65,-252.49019607843138,248.0,-83.49019607843137,33.55,-29.14,-30.82
1104.7,-252.49019607843138,166.0,-160.49019607843138,32.18,-12.79,-11.22
1104.75,-283.4901960784314,199.0,-98.49019607843137,50.38,45.37,34.03
1104.8,-283.4901960784314,297.0,282.01960784313724,98.51,71.16,68.57
1104.85,216.01960784313727,313.0,-6.490196078431373,95.08,95.59,75.89
1104.9,-6.980392156862745,199.0,55.509803921568626,78.24,116.98,61.78
1104.95,104.01960784313725,199.0,147.50980392156862,56.12,118.45,45.51
1105.0,104.01960784313725,183.0,301.5098039215686,19.13,117.99,41.62
1105.05,72.01960784313725,199.0,286.5098039215686,2.89,103.54,48.76
1105.1,136.01960784313727,215.0,-203.0,-7.25,79.32,59.33
1105.15,216.01960784313727,215.0,-141.0,-2.0,45.02,64.79
1105.2,-220.49019607843138,215.0,-172.0,-26.5,14.15,56.18
1105.25,-108.49019607843137,68.0,-110.0,-42.04,-41.11,12.82
1105.3,18.50980392156863,-45.0,-126.0,-67.59,-74.43,-48.81
1105.35,65.50980392156863,-94.0,-218.0,-32.94,-99.66,-58.54
1105.4,-124.49019607843137,3.0,209.50980392156862,-34.2,-93.5,-56.82
1105.45,247.01960784313727,-78.0,55.509803921568626,-95.63,-64.1,-84.68
1105.5,317.52941176470586,-127.0,86.50980392156863,-92.23,-58.29,-108.45
1105.55,247.01960784313727,-13.0,86.50980392156863,-65.21,-60.81,-117.13
1105.6,231.01960784313727,183.0,39.509803921568626,-52.23,-63.26,-107.01
1105.65,200.01960784313727,199.0,70.50980392156863,-36.2,-53.01,-76.28
1105.7,279.01960784313724,248.0,-21.49019607843137,-30.67,-33.02,-36.42
1105.75,-315.4901960784314,248.0,-36.490196078431374,-17.37,-19.41,-4.15
1105.8,-172.49019607843138,248.0,-36.490196078431374,-6.17,-6.21,20.2
1105.85,-172.49019607843138,264.0,-83.49019607843137,40.72,15.72,32.59
1105.9,-220.49019607843138,313.0,-175.49019607843138,34.21,75.33,78.72
1105.95,295.01960784313724,264.0,-175.49019607843138,13.07,113.37,106.86
1106.0,168.01960784313727,-312.5098039215686,86.50980392156863,-18.1,134.65,116.0
1106.05,-6.980392156862745,-296.5098039215686,70.50980392156863,-0.85,128.81,113.3
1106.1,200.01960784313727,313.0,224.50980392156862,-10.09,119.99,105.92
1106.15,-6.980392156862745,150.0,301.5098039215686,-13.76,96.33,96.82
1106.2,25.019607843137255,150.0,-249.0,-19.33,59.12,67.14
1106.25,231.01960784313727,248.0,-187.0,-10.72,23.25,32.87
1106.3,216.01960784313727,215.0,-141.0,-5.96,-14.86,-15.94
1106.35,-299.4901960784314,183.0,-172.0,-4.45,-48.28,-73.94
1106.4,-188.49019607843138,150.0,-233.0,-1.16,-87.31,-154.79
1106.45,-93.49019607843137,183.0,270.5098039215686,-39.0,-82.51,-176.24
1106.5,-124.49019607843137,183.0,163.50980392156862,-10.37,-90.18,-115.17
1106.55,-204.49019607843138,199.0,24.50980392156863,-35.53,-64.52,-85.45
1106.6,279.01960784313724,150.0,39.509803921568626,-129.37,-22.63,-102.32
1106.65,-149.98039215686273,133.0,178.50980392156862,-189.04,-1.56,-123.32
1106.7,247.01960784313727,232.0,239.50980392156862,-201.54,-4.29,-129.9
1106.75,-172.49019607843138,166.0,-279.0,-119.53,-35.37,-113.49
1106.8,152.01960784313727,101.0,286.5098039215686,-14.08,-62.25,-83.18
1106.85,-86.98039215686275,-143.0,116.50980392156863,46.6,-69.46,-46.32
1106.9,-172.49019607843138,209.49019607843138,39.509803921568626,26.83,-50.63,-0.51
1106.95,-108.49019607843137,-133.50980392156862,-36.490196078431374,66.31,-21.26,35.92
1107.0,-61.490196078431374,-280.5098039215686,-98.49019607843137,45.66,41.52,100.63
1107.05,18.50980392156863,297.0,-283.4901960784314,111.11,64.9,147.46
1107.1,-45.490196078431374,-263.5098039215686,24.50980392156863,103.62,98.99,152.26
1107.15,-77.49019607843137,183.0,55.509803921568626,71.14,118.55,141.76
1107.2,177.50980392156862,166.0,270.5098039215686,107.36,100.18,114.49
1107.25,-306.0,-165.50980392156862,-310.0,100.5,93.18,76.48
1107.3,-179.0,297.0,-203.0,54.93,82.43,47.05
1107.35,-116.0,150.0,-172.0,7.47,54.85,25.1
1107.4,-195.0,209.49019607843138,-95.0,-7.11,22.79,15.9
1107.45,18.50980392156863,-286.01960784313724,-95.0,-14.25,-12.83,3.75
1107.5,-252.49019607843138,193.49019607843138,-79.0,-14.95,-37.68,-11.81
1107.55,49.509803921568626,193.49019607843138,-141.0,-32.45,-64.03,-49.68
1107.6,129.50980392156862,46.490196078431374,-233.0,-66.75,-70.79,-94.76
1107.65,34.509803921568626,95.49019607843137,301.5098039215686,-47.57,-75.27,-65.26
1107.7,34.509803921568626,177.49019607843138,101.50980392156863,38.27,-94.13,-14.26
1107.75,113.50980392156863,13.490196078431373,55.509803921568626,13.6,-59.45,-9.71
1107.8,161.50980392156862,62.490196078431374,9.509803921568627,-234.79,55.59,-25.15
1107.85,113.50980392156863,62.490196078431374,116.50980392156863,-4.59,35.92,36.37
1107.9,113.50980392156863,-2.5098039215686274,-55.98039215686274,45.52,14.04,73.3
1107.95,97.50980392156863,13.490196078431373,-52.490196078431374,152.51,2.49,95.52
1108.0,65.50980392156863,-67.50980392156863,-67.49019607843137,142.22,14.43,109.31
1108.05,-29.49019607843137,-100.50980392156863,70.50980392156863,215.23,14.5,110.68
1108.1,18.50980392156863,-149.50980392156862,-67.49019607843137,129.62,37.39,116.14
1108.15,-61.490196078431374,-263.5098039215686,24.50980392156863,68.44,-1.94,102.0
1108.2,-252.49019607843138,68.0,-280.0,29.66,-48.42,145.89
1108.25,104.01960784313725,-296.5098039215686,55.509803921568626,59.9,-57.73,126.43
1108.3,263.01960784313724,150.0,-83.49019607843137,28.47,-87.38,148.41
1108.35,65.50980392156863,183.0,55.509803921568626,70.82,-136.59,163.32
1108.4,113.50980392156863,183.0,70.50980392156863,24.94,-147.82,144.7
1108.45,-140.49019607843138,297.0,-295.0,45.48,-115.03,95.07
1108.5,-236.49019607843138,215.0,116.50980392156863,49.68,-72.78,70.32
1108.55,-93.49019607843137,215.0,-21.49019607843137,75.86,-55.39,50.09
1108.6,-77.49019607843137,183.0,-21.49019607843137,71.87,-55.67,38.93
1108.65,-156.49019607843138,264.0,147.50980392156862,75.3,-57.35,29.97
1108.7,-77.49019607843137,297.0,116.50980392156863,70.72,-58.57,19.47
1108.75,-108.49019607843137,264.0,86.50980392156863,79.96,-59.73,23.49
1108.8,-108.49019607843137,-296.5098039215686,101.50980392156863,66.48,-59.59,24.61
1108.85,200.01960784313727,209.49019607843138,163.50980392156862,55.04,-53.5,21.81
1108.9,-124.49019607843137,297.0,116.50980392156863,51.4,-44.71,19.71
1108.95,-275.0,-149.50980392156862,132.50980392156862,51.15,-38.27,11.49
1109.0,-29.49019607843137,-214.50980392156862,-126.0,37.85,-40.16,-1.84
1109.05,-156.49019607843138,-2.5098039215686274,-83.49019607843137,47.02,-37.43,-4.22
1109.1,-93.49019607843137,-2.5098039215686274,-98.49019607843137,44.71,-47.48,0.36
1109.15,34.509803921568626,-84.50980392156863,147.50980392156862,35.05,-62.81,-1.31
1109.2,65.50980392156863,-133.50980392156862,239.50980392156862,62.0,-23.08,5.22
1109.25,-29.49019607843137,-84.50980392156863,178.50980392156862,63.86,-9.36,18.91
1109.3,-108.49019607843137,-18.50980392156863,101.50980392156863,79.19,-31.13,26.92
1109.35,-61.490196078431374,-100.50980392156863,193.50980392156862,88.71,-61.2,36.83
1109.4,-61.490196078431374,-100.50980392156863,147.50980392156862,72.54,-60.46,48.24
1109.45,-124.49019607843137,-133.50980392156862,147.50980392156862,71.87,-45.31,53.24
1109.5,-93.49019607843137,-133.50980392156862,178.50980392156862,75.58,-33.41,54.57
1109.55,-61.490196078431374,-133.50980392156862,55.509803921568626,60.88,-24.45,52.68
1109.6,-252.49019607843138,-198.50980392156862,-218.0,57.94,-6.07,55.8
1109.65,184.01960784313727,-35.509803921568626,224.50980392156862,62.56,19.36,53.94
1109.7,-267.4901960784314,232.0,286.5098039215686,69.88,28.22,53.07
1109.75,-29.49019607843137,183.0,-233.0,91.44,1.62,77.08
1109.8,-220.49019607843138,199.0,-249.0,11.88,-29.45,69.2
1109.85,231.01960784313727,199.0,193.50980392156862,23.33,-5.51,60.94
1109.9,-252.49019607843138,215.0,55.509803921568626,55.53,-42.33,83.06
1109.95,-156.49019607843138,101.0,301.5098039215686,24.59,-67.29,77.85
1110.0,-188.49019607843138,183.0,224.50980392156862,47.34,-60.67,58.04
1110.05,-188.49019607843138,199.0,86.50980392156863,62.74,-48.14,44.81
1110.1,-93.49019607843137,199.0,101.50980392156863,55.56,-48.6,40.33
1110.15,-108.49019607843137,133.0,116.50980392156863,58.5,-58.29,39.38
1110.2,-124.49019607843137,183.0,24.50980392156863,56.16,-60.67,32.1
1110.25,-77.49019607843137,215.0,-36.490196078431374,47.76,-50.42,22.34
1110.3,-45.490196078431374,248.0,-190.49019607843138,34.07,-48.11,11.17
1110.35,-77.49019607843137,183.0,-206.49019607843138,37.05,-51.12,3.37
1110.4,-124.49019607843137,313.0,-36.490196078431374,17.94,-47.34,-4.99
1110.45,72.01960784313725,-220.01960784313727,-187.0,-0.85,-32.81,-16.78
1110.5,295.01960784313724,133.0,-267.4901960784314,10.62,-7.3,-32.85
1110.55,-227.0,-133.50980392156862,193.50980392156862,11.99,-21.12,-50.21
1110.6,256.5098039215686,-35.509803921568626,-110.0,-9.07,-8.07,-25.6
1110.65,-77.49019607843137,-149.50980392156862,209.50980392156862,-0.67,3.75,-10.52
1110.7,-61.490196078431374,160.49019607843138,209.50980392156862,14.3,3.33,-11.85
1110.75,-124.49019607843137,-100.50980392156863,24.50980392156863,5.2,9.95,-16.85
1110.8,18.50980392156863,-51.509803921568626,39.509803921568626,-3.47,34.06,-13.95
1110.85,18.50980392156863,13.490196078431373,86.50980392156863,17.34,36.9,-5.09
1110.9,-13.490196078431373,-51.509803921568626,239.50980392156862,19.09,12.01,3.19
1110.95,-29.49019607843137,-84.50980392156863,132.50980392156862,21.02,-2.82,11.14
1111.0,2.5098039215686274,-67.50980392156863,132.50980392156862,22.07,-7.51,17.19
1111.05,-29.49019607843137,-149.50980392156862,147.50980392156862,33.23,-15.56,27.94
1111.1,-13.490196078431373,-84.50980392156863,101.50980392156863,32.01,-21.96,39.0
1111.15,-13.490196078431373,-67.50980392156863,116.50980392156863,45.9,-17.52,47.75
1111.2,-13.490196078431373,-84.50980392156863,132.50980392156862,49.61,-5.55,54.54
1111.25,-13.490196078431373,-182.50980392156862,132.50980392156862,68.37,12.89,56.5
1111.3,-236.49019607843138,-165.50980392156862,116.50980392156863,92.73,22.34,54.57
1111.35,311.01960784313724,-84.50980392156863,55.509803921568626,115.8,-26.83,89.43
1111.4,-188.49019607843138,215.0,224.50980392156862,13.42,-60.71,90.94
1111.45,-252.49019607843138,166.0,286.5098039215686,25.15,-21.37,71.76
1111.5,311.01960784313724,232.0,132.50980392156862,64.52,-30.78,91.25
1111.55,311.01960784313724,133.0,86.50980392156863,60.43,-50.31,94.65
1111.6,-156.49019607843138,84.0,86.50980392156863,59.66,-60.46,85.97
1111.65,-45.490196078431374,35.0,116.50980392156863,68.72,-63.58,67.98
1111.7,-108.49019607843137,117.0,39.509803921568626,53.39,-53.53,53.03
1111.75,-124.49019607843137,117.0,-21.49019607843137,61.83,-54.27,50.83
1111.8,-61.490196078431374,35.0,39.509803921568626,70.58,-59.38,49.46
1111.85,311.01960784313724,19.0,86.50980392156863,50.94,-64.24,38.75
1111.9,152.01960784313727,-290.0,-264.0,43.59,-49.54,22.69
1111.95,-204.49019607843138,-258.0,209.50980392156862,49.61,-36.84,8.9
1112.0,129.50980392156862,-94.0,-206.49019607843138,-163.91,-29.59,2.32
1112.05,288.5098039215686,-78.0,-298.4901960784314,-74.21,-26.86,1.97
1112.1,97.50980392156863,117.0,24.50980392156863,50.91,-17.55,-4.39
1112.15,-38.98039215686274,-296.5098039215686,-67.49019607843137,46.53,-5.34,-15.17
1112.2,25.019607843137255,-214.50980392156862,209.50980392156862,9.71,0.64,-38.87
1112.25,88.01960784313725,-296.5098039215686,193.50980392156862,9.33,3.44,-52.87
1112.3,247.01960784313727,-247.50980392156862,316.5098039215686,19.76,13.13,-37.15
1112.35,9.019607843137255,-247.50980392156862,239.50980392156862,55.81,-5.09,-31.48
1112.4,25.019607843137255,-198.50980392156862,270.5098039215686,54.34,-12.41,-29.52
1112.45,136.01960784313727,-296.5098039215686,-156.0,28.72,-4.67,-29.45
1112.5,152.01960784313727,199.0,-233.0,-21.92,1.9,-28.23
1112.55,279.01960784313724,52.0,-295.0,-29.72,14.15,-24.31
1112.6,-252.49019607843138,35.0,224.50980392156862,-30.39,15.2,-24.24
1112.65,-156.49019607843138,-45.0,39.509803921568626,-16.74,11.24,-18.95
1112.7,-140.49019607843138,-29.0,9.509803921568627,-4.91,10.86,-3.97
1112.75,-188.49019607843138,-78.0,24.50980392156863,-23.42,-5.83,-4.15
1112.8,168.01960784313727,-94.0,-52.490196078431374,-45.93,-12.62,-48.81
1112.85,88.01960784313725,35.0,-52.490196078431374,-73.68,-19.06,-68.55
1112.9,311.01960784313724,3.0,39.509803921568626,-145.57,-20.88,-85.24
1112.95,168.01960784313727,84.0,193.50980392156862,-178.12,-14.09,-115.1
1113.0,41.01960784313726,313.0,270.5098039215686,-123.59,-18.08,-133.89
1113.05,263.01960784313724,-149.50980392156862,270.5098039215686,-49.85,-51.05,-170.26
1113.1,-188.49019607843138,-149.50980392156862,-279.0,-17.44,0.85,-136.24
1113.15,-124.49019607843137,-198.50980392156862,-310.0,23.01,46.42,-54.06
1113.2,-93.49019607843137,-149.50980392156862,270.5098039215686,81.22,86.42,32.73
1113.25,2.5098039215686274,-116.50980392156863,132.50980392156862,161.54,85.27,118.66
1113.3,-29.49019607843137,-133.50980392156862,-6.490196078431373,151.85,84.25,160.59
1113.35,-172.49019607843138,-280.5098039215686,-52.490196078431374,155.31,64.13,191.95
1113.4,25.019607843137255,215.0,-98.49019607843137,84.09,51.14,198.95
1113.45,-181.98039215686273,84.0,-190.49019607843138,96.72,46.03,189.22
1113.5,136.01960784313727,183.0,55.509803921568626,78.45,32.77,158.45
1113.55,88.01960784313725,133.0,209.50980392156862,58.54,14.99,113.23
1113.6,72.01960784313725,133.0,239.50980392156862,80.62,3.72,68.4
1113.65,120.01960784313725,297.0,-310.0,91.72,-9.78,19.15
1113.7,200.01960784313727,-280.5098039215686,-141.0,66.48,-32.5,-50.8
1113.75,-315.4901960784314,297.0,-64.0,60.25,-48.28,-170.22
1113.8,-236.49019607843138,-296.5098039215686,-64.0,87.03,-21.12,-211.03
1113.85,-188.49019607843138,-214.50980392156862,-64.0,102.43,-6.81,-219.96
1113.9,-188.49019607843138,-182.50980392156862,-79.0,91.12,14.88,-227.27
1113.95,-220.49019607843138,-263.5098039215686,-110.0,70.72,33.5,-205.26
1114.0,295.01960784313724,313.0,270.5098039215686,-123.59,16.84,-153.39
1114.05,216.01960784313727,-149.50980392156862,270.5098039215686,-49.85,-16.99,-98.93
1114.1,231.01960784313727,-149.50980392156862,-279.0,-17.44,-43.31,-66.97
1114.15,-6.980392156862745,-198.50980392156862,-310.0,23.01,-72.08,-38.94
1114.2,136.01960784313727,-149.50980392156862,270.5098039215686,81.22,-93.29,-1.94
1114.25,-188.49019607843138,-116.50980392156863,132.50980392156862,161.54,-91.16,55.94
1114.3,-236.49019607843138,-133.50980392156862,-6.490196078431373,151.85,-55.21,101.33
1114.35,-188.49019607843138,-280.5098039215686,-52.490196078431374,155.31,-1.94,107.42
1114.4,-204.49019607843138,215.0,-98.49019607843137,84.09,63.01,137.94
1114.45,-140.49019607843138,84.0,-190.49019607843138,96.72,82.19,160.31
1114.5,-108.49019607843137,183.0,55.509803921568626,78.45,91.29,142.6
1114.55,-188.49019607843138,133.0,209.50980392156862,58.54,86.88,74.73
1114.6,-204.49019607843138,133.0,239.50980392156862,80.62,83.76,23.07
1114.65,-188.49019607843138,297.0,-310.0,91.72,73.75,-0.44
1114.7,-188.49019607843138,-280.5098039215686,-141.0,66.48,40.5,2.77
1114.75,-172.49019607843138,297.0,-64.0,60.25,5.19,14.08
1114.8,-172.49019607843138,-296.5098039215686,-64.0,87.03,-30.05,24.82
1114.85,-220.49019607843138,-214.50980392156862,-64.0,102.43,-52.8,39.49
1114.9,-220.49019607843138,-182.50980392156862,-79.0,91.12,-70.72,54.57
1114.95,9.019607843137255,-263.5098039215686,-110.0,70.72,-73.41,67.35
1115.0,231.01960784313727,-296.5098039215686,-233.0,40.34,-58.05,84.78
1115.05,216.01960784313727,101.0,286.5098039215686,4.88,-37.47,104.38
1115.1,104.01960784313725,19.0,101.50980392156863,-20.76,-14.3,99.27
1115.15,57.01960784313726,84.0,-21.49019607843137,-5.99,-8.03,109.38
1115.2,231.01960784313727,281.0,-221.49019607843138,62.32,-12.34,102.21
1115.25,-299.4901960784314,281.0,313.01960784313724,-24.09,22.3,37.32
1115.3,-236.49019607843138,199.0,-175.49019607843138,-22.86,40.08,-28.65
1115.35,-108.49019607843137,166.0,101.50980392156863,2.5,32.91,-59.45
1115.4,-93.49019607843137,150.0,101.50980392156863,5.23,12.96,-77.33
1115.45,-124.49019607843137,101.0,132.50980392156862,-8.86,-5.79,-95.43
1115.5,-124.49019607843137,52.0,239.50980392156862,-20.45,-20.67,-106.21
1115.55,-188.49019607843138,52.0,239.50980392156862,-9.84,-35.65,-100.5
1115.6,311.01960784313724,68.0,224.50980392156862,2.47,-47.9,-84.02
1115.65,-149.98039215686273,52.0,147.50980392156862,-0.39,-52.48,-68.83
1115.7,136.01960784313727,84.0,132.50980392156862,-1.09,-52.45,-45.48
1115.75,-204.49019607843138,52.0,86.50980392156863,12.3,-49.09,-20.81
1115.8,216.01960784313727,35.0,9.509803921568627,11.78,-40.86,-2.36
1115.85,-315.4901960784314,232.0,-67.49019607843137,51.99,-50.24,-3.87
1115.9,-77.49019607843137,313.0,-67.49019607843137,79.22,-4.04,18.66
1115.95,2.5098039215686274,-231.50980392156862,298.01960784313724,93.71,47.47,77.64
1116.0,-13.490196078431373,-165.50980392156862,-160.49019607843138,63.89,98.22,116.21
1116.05,-77.49019607843137,-263.5098039215686,86.50980392156863,-18.59,128.04,107.7
1116.1,-140.49019607843138,183.0,178.50980392156862,-76.83,130.45,111.45
1116.15,-204.49019607843138,101.0,209.50980392156862,-28.18,100.07,107.21
1116.2,-283.4901960784314,150.0,-310.0,19.69,62.87,94.89
1116.25,-236.49019607843138,166.0,-249.0,22.77,24.96,81.38
1116.3,-38.98039215686274,166.0,-172.0,14.89,-6.98,59.4
1116.35,200.01960784313727,232.0,-172.0,15.07,-28.26,32.0
1116.4,295.01960784313724,183.0,-203.0,-7.15,-37.54,1.86
1116.45,25.019607843137255,133.0,316.5098039215686,-18.17,-51.22,-33.23
1116.5,72.01960784313725,264.0,224.50980392156862,-9.95,-72.4,-85.56
1116.55,247.01960784313727,-312.5098039215686,132.50980392156862,23.26,-94.45,-146.67
1116.6,311.01960784313724,-312.5098039215686,-21.49019607843137,8.07,-76.77,-176.0
1116.65,-283.4901960784314,297.0,-144.49019607843138,-36.58,-49.82,-133.12
1116.7,-124.49019607843137,264.0,-129.49019607843138,-51.91,-24.62,-103.55
1116.75,-61.490196078431374,264.0,-52.490196078431374,-169.3,52.68,-91.16
1116.8,-61.490196078431374,232.0,101.50980392156863,-197.97,66.16,-58.82
1116.85,-156.49019607843138,215.0,270.5098039215686,-181.45,41.66,-31.24
1116.9,-252.49019607843138,166.0,-264.0,-102.7,0.29,-17.45
1116.95,311.01960784313724,35.0,-295.0,6.46,-38.62,-14.65
1117.0,-197.98039215686273,19.0,-160.49019607843138,62.7,-59.24,4.59
1117.05,120.01960784313725,84.0,129.01960784313727,42.61,-63.23,21.74
1117.1,2.5098039215686274,19.0,-313.4901960784314,32.46,-62.35,30.39
1117.15,-172.49019607843138,19.0,-6.490196078431373,51.96,-51.64,37.74
1117.2,-315.4901960784314,117.0,39.509803921568626,107.82,-61.9,27.97
1117.25,-220.49019607843138,264.0,239.50980392156862,107.61,1.41,12.4
1117.3,-156.49019607843138,-312.5098039215686,270.5098039215686,115.62,41.73,30.95
1117.35,-156.49019607843138,-165.50980392156862,224.50980392156862,94.83,75.82,29.02
1117.4,-172.49019607843138,-280.5098039215686,239.50980392156862,14.4,111.45,22.02
1117.45,-108.49019607843137,248.0,193.50980392156862,-35.5,131.57,46.03
1117.5,-140.49019607843138,281.0,24.50980392156863,-14.78,108.05,81.87
1117.55,-188.49019607843138,215.0,9.509803921568627,-0.95,81.49,98.71
1117.6,-204.49019607843138,117.0,-6.490196078431373,9.15,52.37,99.51
1117.65,-108.49019607843137,133.0,101.50980392156863,3.9,8.44,84.57
1117.7,104.01960784313725,297.0,-52.490196078431374,-0.32,-32.22,56.88
1117.75,247.01960784313727,-198.50980392156862,-129.49019607843138,-0.29,-62.98,26.54
1117.8,311.01960784313724,-312.5098039215686,255.50980392156862,5.93,-75.27,1.13
1117.85,136.01960784313727,232.0,209.50980392156862,2.89,-70.47,-21.02
1117.9,-6.980392156862745,297.0,224.50980392156862,-47.47,-63.16,-52.52
1117.95,136.01960784313727,281.0,-218.0,-65.95,-55.39,-105.79
1118.0,216.01960784313727,248.0,-172.0,-56.88,-26.09,-67.99
1118.05,-315.4901960784314,281.0,-141.0,-8.09,-17.31,-62.7
1118.1,-220.49019607843138,264.0,-110.0,-35.18,34.1,-64.73
1118.15,-172.49019607843138,199.0,-110.0,-42.74,46.84,-83.32
1118.2,-172.49019607843138,133.0,-233.0,-30.84,18.63,-77.47
1118.25,-140.49019607843138,133.0,209.50980392156862,-2.7,-5.79,-61.62
1118.3,-61.490196078431374,68.0,-67.49019607843137,56.3,-20.14,-41.84
1118.35,-283.4901960784314,-143.0,-129.49019607843138,52.24,-21.23,-15.35
1118.4,-101.98039215686275,-13.0,-206.49019607843138,23.12,-19.3,12.82
1118.45,-236.49019607843138,133.0,-175.49019607843138,47.23,-14.33,51.04
1118.5,-299.4901960784314,117.0,-113.49019607843137,47.83,-9.12,70.95
1118.55,-299.4901960784314,150.0,101.50980392156863,44.5,-8.98,72.77
1118.6,-188.49019607843138,133.0,255.50980392156862,49.89,-28.79,47.61
1118.65,-188.49019607843138,281.0,239.50980392156862,122.41,-27.14,-5.51
1118.7,-124.49019607843137,-133.50980392156862,132.50980392156862,159.3,15.9,37.88
1118.75,-124.49019607843137,-165.50980392156862,70.50980392156863,165.53,40.36,65.63
1118.8,-140.49019607843138,-312.5098039215686,9.509803921568627,105.58,74.8,76.55
1118.85,-172.49019607843138,232.0,9.509803921568627,43.14,98.92,97.13
1118.9,-236.49019607843138,281.0,-36.490196078431374,3.62,96.99,122.12
1118.95,-283.4901960784314,313.0,-36.490196078431374,-35.15,72.88,137.98
1119.0,-197.98039215686273,-263.5098039215686,-175.49019607843138,-33.05,42.36,137.56
1119.05,200.01960784313727,-182.50980392156862,24.50980392156863,-10.05,8.76,122.47
1119.1,-315.4901960784314,297.0,286.5098039215686,7.12,-28.68,82.5
1119.15,72.01960784313725,183.0,239.50980392156862,-1.2,-46.81,41.03
1119.2,-70.98039215686275,297.0,316.5098039215686,34.21,-56.58,-0.37
1119.25,88.01960784313725,-296.5098039215686,-110.0,75.55,-64.42,-31.83
1119.3,231.01960784313727,297.0,-95.0,5.3,-68.86,-103.34
1119.35,311.01960784313724,313.0,-64.0,-40.75,-35.72,-120.28
1119.4,-283.4901960784314,-296.5098039215686,-49.0,1.28,-43.28,-97.04
1119.45,-236.49019607843138,313.0,-64.0,4.36,-18.32,-77.09
1119.5,-204.49019607843138,232.0,-95.0,-43.2,5.85,-67.22
1119.55,-267.4901960784314,199.0,-279.0,-86.53,-0.37,-73.94
1119.6,200.01960784313727,183.0,193.50980392156862,-61.08,-24.59,-84.68
1119.65,136.01960784313727,68.0,9.509803921568627,47.37,-49.65,-75.27
1119.7,-140.49019607843138,-45.0,-236.49019607843138,122.87,-55.42,-41.18
1119.75,-172.49019607843138,-13.0,313.01960784313724,83.35,-34.74,-4.81
1119.8,-299.4901960784314,-78.0,-206.49019607843138,47.16,-11.43,30.74
1119.85,-252.49019607843138,-78.0,-175.49019607843138,43.0,7.08,66.79
1119.9,-93.49019607843137,281.0,-206.49019607843138,72.92,-3.76,77.04
1119.95,-204.49019607843138,199.0,9.509803921568627,115.62,25.49,80.79
1120.0,-267.4901960784314,183.0,55.509803921568626,10.55,46.59,115.23
1120.05,-236.49019607843138,264.0,116.50980392156863,5.3,61.29,114.91
1120.1,-220.49019607843138,313.0,132.50980392156862,-8.23,91.64,63.81
1120.15,-236.49019607843138,281.0,163.50980392156862,-12.54,105.92,48.27
1120.2,-156.49019607843138,281.0,178.50980392156862,-11.38,92.41,76.48
1120.25,-156.49019607843138,232.0,163.50980392156862,-2.81,69.94,106.65
1120.3,-140.49019607843138,199.0,162.50980392156862,14.09,37.88,115.89
1120.35,-140.49019607843138,199.0,132.50980392156862,48.74,0.99,106.69
1120.4,-315.4901960784314,248.0,86.50980392156863,94.1,-35.44,90.87
1120.45,200.01960784313727,-296.5098039215686,-36.490196078431374,119.93,-65.82,69.31
1120.5,-267.4901960784314,-296.5098039215686,55.509803921568626,107.85,-78.56,50.58
1120.55,-204.49019607843138,232.0,239.50980392156862,96.06,-82.86,16.53
1120.6,-315.4901960784314,264.0,193.50980392156862,101.41,-79.96,14.18
1120.65,184.01960784313727,-312.5098039215686,239.50980392156862,79.43,-78.77,9.77
1120.7,200.01960784313727,-280.5098039215686,-310.0,69.35,-51.92,-12.02
1120.75,279.01960784313724,313.0,-233.0,79.61,-23.82,-47.9
1120.8,-204.49019607843138,-296.5098039215686,-295.0,97.46,-5.3,-52.34
1120.85,-252.49019607843138,-263.5098039215686,-310.0,63.86,-16.78,-67.92
1120.9,-315.4901960784314,199.0,301.5098039215686,-9.39,-8.63,-76.53
1120.95,-315.4901960784314,101.0,224.50980392156862,-25.52,2.81,-66.27
1121.0,-283.4901960784314,84.0,147.50980392156862,-14.46,9.53,-41.63
1121.05,-172.49019607843138,52.0,116.50980392156863,-17.58,15.2,-11.29
1121.1,-172.49019607843138,3.0,55.509803921568626,-29.09,20.76,21.46
1121.15,-315.4901960784314,-45.0,132.50980392156862,-28.88,18.94,49.36
1121.2,231.01960784313727,68.0,70.50980392156863,8.17,12.96,60.42
1121.25,-188.49019607843138,166.0,55.509803921568626,-13.97,-0.19,52.37
1121.3,-283.4901960784314,101.0,132.50980392156862,-81.56,-20.6,29.3
1121.35,247.01960784313727,68.0,239.50980392156862,-97.41,-43.77,-0.02
1121.4,279.01960784313724,199.0,224.50980392156862,-65.0,-38.48,11.94
1121.45,-220.49019607843138,281.0,209.50980392156862,-45.12,-24.55,53.49
1121.5,-188.49019607843138,297.0,209.50980392156862,-40.57,-8.0,74.0
1121.55,-156.49019607843138,248.0,193.50980392156862,-49.53,1.72,69.31
1121.6,-93.49019607843137,215.0,178.50980392156862,-51.07,11.84,57.55
1121.65,-124.49019607843137,215.0,147.50980392156862,-39.52,17.12,77.39
1121.7,-124.49019607843137,232.0,86.50980392156863,-22.58,2.14,88.63
1121.75,-188.49019607843138,248.0,55.509803921568626,-9.81,-14.51,89.96
1121.8,-204.49019607843138,232.0,24.50980392156863,7.16,-12.16,94.09
1121.85,-236.49019607843138,199.0,-52.490196078431374,52.76,0.88,96.29
1121.9,88.01960784313725,281.0,-175.49019607843138,90.14,11.07,96.96
1121.95,184.01960784313727,-296.5098039215686,-221.49019607843138,78.98,12.5,88.77
1122.0,-236.49019607843138,199.0,9.509803921568627,17.97,7.74,67.73
1122.05,279.01960784313724,52.0,70.50980392156863,-4.24,5.15,17.65
1122.1,200.01960784313727,199.0,163.50980392156862,25.43,-5.65,-58.57
1122.15,136.01960784313727,-312.5098039215686,255.50980392156862,21.54,-9.47,-105.61
1122.2,231.01960784313727,313.0,-264.0,-11.1,-17.62,-116.08
1122.25,-315.4901960784314,215.0,-156.0,12.72,-2.96,-131.65
1122.3,-156.49019607843138,-312.5098039215686,-156.0,33.44,10.72,-139.32
1122.35,-172.49019607843138,281.0,-187.0,30.15,11.77,-121.08
1122.4,-172.49019607843138,215.0,-203.0,8.03,-1.77,-85.52
1122.45,-188.49019607843138,101.0,-310.0,-0.39,-12.3,-66.52
1122.5,-172.49019607843138,101.0,209.50980392156862,4.46,-18.53,-54.23
1122.55,-252.49019607843138,52.0,132.50980392156862,21.68,-18.78,-40.41
1122.6,279.01960784313724,35.0,24.50980392156863,4.99,-20.6,-28.23
1122.65,-133.98039215686273,84.0,-67.49019607843137,3.48,-26.2,-17.94
1122.7,-315.4901960784314,84.0,-36.490196078431374,-23.11,-30.92,-5.09
1122.75,-252.49019607843138,52.0,24.50980392156863,-119.04,-32.99,9.56
1122.8,184.01960784313727,35.0,132.50980392156862,-171.89,-44.33,6.55
1122.85,311.01960784313724,150.0,239.50980392156862,-138.12,-35.96,-8.21
1122.9,-140.49019607843138,264.0,286.5098039215686,-54.64,7.29,40.82
1122.95,-108.49019607843137,-247.50980392156862,270.5098039215686,4.53,39.73,77.18
1123.0,-93.49019607843137,-280.5098039215686,9.509803921568627,17.97,78.06,74.77
1123.05,-108.49019607843137,264.0,70.50980392156863,-4.24,92.72,64.44
1123.1,-124.49019607843137,297.0,163.50980392156862,25.43,80.65,72.95
1123.15,-315.4901960784314,144.49019607843138,255.50980392156862,21.54,60.56,89.15
1123.2,152.01960784313727,111.49019607843137,-264.0,-11.1,37.04,92.23
1123.25,200.01960784313727,291.4901960784314,-156.0,12.72,6.8,89.71
1123.3,-267.4901960784314,-89.01960784313725,-156.0,33.44,-13.21,74.17
1123.35,247.01960784313727,220.98039215686273,-187.0,30.15,-34.39,54.12
1123.4,231.01960784313727,155.98039215686273,-203.0,8.03,-42.75,32.17
1123.45,-13.490196078431373,-73.01960784313725,-310.0,-0.39,-52.17,4.59
1123.5,97.50980392156863,13.490196078431373,209.50980392156862,4.46,-59.8,-31.73
1123.55,-195.0,-231.50980392156862,132.50980392156862,21.68,-72.75,-94.1
1123.6,-131.0,-312.5098039215686,24.50980392156863,4.99,-50.77,-114.54
1123.65,-36.0,-149.50980392156862,-67.49019607843137,3.48,-48.49,-94.06
1123.7,217.0,166.0,-36.490196078431374,-23.11,-19.48,-94.8
1123.75,-298.5098039215686,-280.5098039215686,24.50980392156863,-119.04,31.05,-100.57
1123.8,-27.50980392156863,313.0,132.50980392156862,-171.89,44.11,-86.08
1123.85,-11.509803921568627,-247.50980392156862,239.50980392156862,-138.12,25.1,-55.07
1123.9,-139.50980392156862,-231.50980392156862,286.5098039215686,-54.64,-0.72,-41.28
1123.95,265.0,281.0,270.5098039215686,4.53,-23.5,-30.61
1124.0,-20.0,52.0,209.50980392156862,15.49,-35.58,-19.83
1124.05,161.50980392156862,232.0,147.50980392156862,52.34,-28.19,29.23
1124.1,288.5098039215686,-2.5098039215686274,86.50980392156863,105.44,-0.02,157.96
1124.15,208.50980392156862,313.0,-144.49019607843138,35.61,48.69,248.54
1124.2,-299.4901960784314,297.0,-252.49019607843138,35.89,50.97,316.62
1124.25,-315.4901960784314,-149.50980392156862,267.01960784313724,95.32,6.76,-308.33
1124.3,231.01960784313727,177.49019607843138,-144.49019607843138,107.22,-18.15,-259.15
1124.35,-220.49019607843138,-35.509803921568626,-175.49019607843138,-1.62,-31.76,-213.34
1124.4,263.01960784313724,-133.50980392156862,-141.0,51.08,-69.46,-248.13
1124.45,247.01960784313727,-296.5098039215686,-126.0,37.71,-65.05,310.28
1124.5,247.01960784313727,264.0,135.0,2.22,-62.35,224.25
1124.55,-220.49019607843138,281.0,-95.0,-51.81,-44.22,132.34
1124.6,-236.49019607843138,281.0,-95.0,22.49,-14.72,76.52
1124.65,-213.98039215686273,-133.50980392156862,224.50980392156862,1.1,0.08,46.94
1124.7,72.01960784313725,-280.5098039215686,270.5098039215686,-19.29,26.08,17.68
1124.75,263.01960784313724,264.0,9.509803921568627,-7.57,21.18,-16.78
1124.8,104.01960784313725,-296.5098039215686,-52.490196078431374,23.64,-2.08,-24.66
1124.85,-86.98039215686275,-280.5098039215686,-206.49019607843138,56.44,-29.59,-58.12
1124.9,-70.98039215686275,-247.50980392156862,-6.490196078431373,90.63,-51.22,-124.06
1124.95,168.01960784313727,-165.50980392156862,-83.49019607843137,71.28,-75.41,-226.29
1125.0,216.01960784313727,-35.509803921568626,316.5098039215686,-1.44,-66.13,-254.43
1125.05,263.01960784313724,-84.50980392156863,193.50980392156862,106.98,-103.3,-285.3
1125.1,279.01960784313724,-198.50980392156862,9.509803921568627,69.91,-140.16,-261.19
1125.15,295.01960784313724,-198.50980392156862,147.50980392156862,-153.59,-113.77,-262.41
1125.2,200.01960784313727,-149.50980392156862,-267.4901960784314,-197.02,-105.72,-256.95
1125.25,72.01960784313725,-149.50980392156862,-36.490196078431374,-163.81,-109.46,-238.86
1125.3,-70.98039215686275,-182.50980392156862,-252.49019607843138,-39.8,-150.06,-202.63
1125.35,-165.98039215686273,-231.50980392156862,-190.49019607843138,92.59,-158.29,-167.98
1125.4,-165.98039215686273,297.0,298.01960784313724,133.96,-127.1,-113.35
1125.45,-292.98039215686276,-13.0,313.01960784313724,77.05,-57.21,-49.4
1125.5,-22.980392156862745,-111.0,313.01960784313724,46.29,9.63,23.14
1125.55,263.01960784313724,-258.0,313.01960784313724,88.5,27.1,42.78
1125.6,-236.49019607843138,-143.0,-190.49019607843138,135.5,75.92,39.28
1125.65,-283.4901960784314,-192.0,252.01960784313727,131.02,105.6,70.39
1125.7,-124.49019607843137,-160.0,9.509803921568627,118.14,126.39,84.57
1125.75,-108.49019607843137,-13.0,209.50980392156862,130.5,137.73,63.15
1125.8,-220.49019607843138,68.0,209.50980392156862,76.7,149.46,31.96
1125.85,295.01960784313724,117.0,301.5098039215686,-3.61,141.79,42.67
1125.9,216.01960784313727,183.0,-95.0,-14.46,102.56,85.58
1125.95,216.01960784313727,264.0,-79.0,48.04,54.43,115.16
1126.0,216.01960784313727,-35.509803921568626,-18.0,96.2,5.75,135.04
1126.05,263.01960784313724,-84.50980392156863,-3.0,75.79,-36.35,143.96
1126.1,279.01960784313724,-198.50980392156862,73.0,86.64,-71.1,148.72
1126.15,295.01960784313724,-198.50980392156862,12.0,120.17,-94.83,153.69
1126.2,200.01960784313727,-149.50980392156862,-64.0,150.24,-102.57,166.71
1126.25,72.01960784313725,-149.50980392156862,-141.0,157.48,-92.84,187.33
1126.3,-70.98039215686275,-182.50980392156862,-218.0,155.38,-65.92,208.61
1126.35,-165.98039215686273,-231.50980392156862,-295.0,130.6,-43.42,223.2
1126.4,-165.98039215686273,297.0,301.5098039215686,18.01,7.36,201.19
1126.45,-292.98039215686276,-13.0,163.50980392156862,-42.18,14.71,180.89
1126.5,-22.980392156862745,-111.0,9.509803921568627,-16.35,-14.65,154.78
1126.55,263.01960784313724,-258.0,-21.49019607843137,67.6,-31.38,66.79
1126.6,-236.49019607843138,-143.0,-175.49019607843138,51.75,-24.38,-16.26
1126.65,-283.4901960784314,-192.0,24.50980392156863,12.23,-31.8,-75.3
1126.7,-124.49019607843137,-160.0,178.50980392156862,0.23,-45.31,-120.91
1126.75,-108.49019607843137,-13.0,178.50980392156862,-0.85,-57.17,-155.45
1126.8,-220.49019607843138,68.0,163.50980392156862,-10.61,-69.28,-179.81
1126.85,295.01960784313724,117.0,193.50980392156862,-18.0,-69.88,-176.59
1126.9,216.01960784313727,183.0,116.50980392156863,-17.12,-62.91,-151.88
1126.95,216.01960784313727,264.0,70.50980392156863,-31.19,-42.89,-104.84
1127.0,231.01960784313727,248.0,55.509803921568626,-43.48,-23.01,-64.1
1127.05,295.01960784313724,297.0,24.50980392156863,-48.8,-5.3,-19.58
1127.1,-267.4901960784314,-312.5098039215686,24.50980392156863,-52.96,-9.12,-1.1
1127.15,-220.49019607843138,297.0,39.509803921568626,25.29,-10.55,5.19
1127.2,279.01960784313724,-214.50980392156862,-52.490196078431374,103.9,12.64,53.17
1127.25,-315.4901960784314,-100.50980392156863,-190.49019607843138,124.13,39.84,90.31
1127.3,-252.49019607843138,-263.5098039215686,101.50980392156863,71.42,78.41,106.13
1127.35,168.01960784313727,232.0,116.50980392156863,40.62,88.73,114.7
1127.4,72.01960784313725,248.0,209.50980392156862,40.06,84.01,126.67
1127.45,88.01960784313725,297.0,270.5098039215686,47.23,67.31,141.37
1127.5,184.01960784313727,297.0,-310.0,51.61,45.72,140.95
1127.55,247.01960784313727,264.0,-218.0,40.09,21.53,123.56
1127.6,-315.4901960784314,199.0,-187.0,26.58,0.92,97.24
1127.65,-220.49019607843138,166.0,-172.0,14.68,-15.14,64.79
1127.7,-172.49019607843138,150.0,-218.0,7.09,-28.58,29.69
1127.75,-172.49019607843138,101.0,-279.0,-12.15,-41.46,-17.94
1127.8,-267.4901960784314,52.0,286.5098039215686,-37.77,-48.77,-73.97
1127.85,168.01960784313727,19.0,147.50980392156862,-40.71,-55.81,-79.36
1127.9,216.01960784313727,68.0,101.50980392156863,3.83,-69.7,-77.86
1127.95,-77.49019607843137,68.0,-21.49019607843137,-24.05,-28.4,-105.96
1128.0,-61.490196078431374,35.0,-113.49019607843137,-126.22,6.13,-121.05
1128.05,-29.49019607843137,-62.0,132.50980392156862,-139.45,11.49,-105.82
1128.1,-77.49019607843137,101.0,116.50980392156863,-68.4,-0.3,-90.81
1128.15,-204.49019607843138,-312.5098039215686,101.50980392156863,-22.09,-8.28,-74.32
1128.2,200.01960784313727,-263.5098039215686,70.50980392156863,-18.52,-11.43,-53.08
1128.25,-117.98039215686275,281.0,101.50980392156863,-18.21,-7.33,-20.84
1128.3,-299.4901960784314,264.0,55.509803921568626,-10.44,-3.34,-2.19
1128.35,247.01960784313727,264.0,55.509803921568626,-10.75,-2.78,11.17
1128.4,216.01960784313727,232.0,39.509803921568626,-5.19,-10.06,25.63
1128.45,-252.49019607843138,215.0,70.50980392156863,43.56,-43.56,11.03
1128.5,-93.49019607843137,264.0,55.509803921568626,119.82,-16.12,26.36
1128.55,-77.49019607843137,-247.50980392156862,-236.49019607843138,161.16,11.38,70.5
1128.6,-140.49019607843138,-247.50980392156862,-52.490196078431374,141.63,49.11,84.71
1128.65,-204.49019607843138,215.0,193.50980392156862,74.36,91.78,85.86
1128.7,-156.49019607843138,183.0,86.50980392156863,13.46,106.97,96.22
1128.75,-236.49019607843138,199.0,286.5098039215686,-23.35,96.15,122.19
1128.8,-267.4901960784314,215.0,-280.0,-21.01,75.12,137.8
1128.85,-188.49019607843138,264.0,-264.0,-2.91,46.56,133.32
1128.9,-204.49019607843138,215.0,-187.0,-2.84,16.18,105.6
1128.95,-6.980392156862745,150.0,-203.0,-6.55,-20.84,55.38
1129.0,231.01960784313727,117.0,-187.0,-3.65,-50.24,-5.62
1129.05,-267.4901960784314,68.0,-310.0,15.1,-64.56,-50.8
1129.1,231.01960784313727,101.0,239.50980392156862,24.2,-75.37,-96.06
1129.15,152.01960784313727,68.0,101.50980392156863,15.17,-87.45,-150.97
1129.2,247.01960784313727,35.0,70.50980392156863,-67.63,-58.75,-159.86
1129.25,-315.4901960784314,19.0,-21.49019607843137,-77.04,-51.96,-125.56
1129.3,-267.4901960784314,101.0,-6.490196078431373,-41.52,-21.3,-112.93
1129.35,-220.49019607843138,248.0,-98.49019607843137,-85.86,10.96,-98.61
1129.4,-204.49019607843138,183.0,86.50980392156863,-147.32,15.69,-64.45
1129.45,-252.49019607843138,199.0,193.50980392156862,-83.59,3.58,-40.09
1129.5,-267.4901960784314,-214.50980392156862,193.50980392156862,23.71,-14.23,-19.86
1129.55,-299.4901960784314,-133.50980392156862,132.50980392156862,24.9,-20.28,2.74
1129.6,295.01960784313724,-312.5098039215686,147.50980392156862,12.23,-13.14,31.05
1129.65,-54.98039215686274,281.0,70.50980392156863,26.65,-8.14,54.22
1129.7,-108.49019607843137,281.0,39.509803921568626,45.62,-5.55,64.51
1129.75,49.509803921568626,248.0,55.509803921568626,49.09,-3.38,70.01
1129.8,-188.49019607843138,199.0,55.509803921568626,41.91,-9.85,71.23
1129.85,-188.49019607843138,150.0,132.50980392156862,73.24,-40.93,31.54
1129.9,-172.49019607843138,183.0,178.50980392156862,126.44,-13.81,6.03
1129.95,-299.4901960784314,-312.5098039215686,-190.49019607843138,145.58,17.61,47.99
1130.0,-315.4901960784314,-263.5098039215686,70.50980392156863,87.97,40.96,67.59
1130.05,-315.4901960784314,117.0,255.50980392156862,62.6,60.07,54.71
1130.1,-315.4901960784314,183.0,178.50980392156862,62.6,66.86,41.27
1130.15,295.01960784313724,297.0,316.5098039215686,58.19,50.72,48.9
1130.2,-267.4901960784314,297.0,-187.0,52.06,27.73,66.16
1130.25,-252.49019607843138,313.0,-141.0,65.08,8.97,72.88
1130.3,-252.49019607843138,313.0,-110.0,59.9,-3.06,66.37
1130.35,-101.98039215686275,281.0,-156.0,19.37,-10.87,56.25
1130.4,88.01960784313725,199.0,-141.0,-19.57,-23.47,42.85
1130.45,263.01960784313724,183.0,-203.0,-18.56,-36.52,32.98
1130.5,136.01960784313727,232.0,-233.0,5.2,-35.61,25.24
1130.55,88.01960784313725,248.0,255.50980392156862,-2.11,-41.63,-9.12
1130.6,231.01960784313727,117.0,132.50980392156862,-77.46,-20.35,-15.35
1130.65,231.01960784313727,35.0,39.509803921568626,-64.69,-55.39,-4.08
1130.7,231.01960784313727,52.0,-6.490196078431373,69.32,-79.36,-29.84
1130.75,120.01960784313725,199.0,-160.49019607843138,29.63,-45.59,-68.65
1130.8,-6.980392156862745,101.0,-113.49019607843137,10.2,-37.75,-80.55
1130.85,-101.98039215686275,52.0,-252.49019607843138,98.47,-52.62,-69.07
1130.9,-38.98039215686274,-312.5098039215686,9.509803921568627,130.88,-40.23,-40.02
1130.95,-22.980392156862745,297.0,-21.49019607843137,133.75,-18.39,-0.65
1131.0,152.01960784313727,166.0,-6.490196078431373,132.46,1.9,23.39
1131.05,295.01960784313724,68.0,55.509803921568626,127.66,19.85,34.9
1131.1,-156.49019607843138,68.0,70.50980392156863,122.87,30.28,41.45
1131.15,-108.49019607843137,117.0,147.50980392156862,126.72,34.45,49.81
1131.2,-204.49019607843138,117.0,224.50980392156862,128.08,37.35,59.44
1131.25,-299.4901960784314,199.0,255.50980392156862,120.8,20.06,47.82
1131.3,-315.4901960784314,183.0,-310.0,145.79,31.86,35.88
1131.35,184.01960784313727,117.0,270.5098039215686,162.66,50.37,82.61
1131.4,168.01960784313727,133.0,255.50980392156862,146.07,59.75,126.67
1131.45,-299.4901960784314,101.0,-141.0,118.42,44.74,137.42
1131.5,-204.49019607843138,101.0,-33.0,113.56,7.39,140.6
1131.55,-236.49019607843138,68.0,181.0,112.33,-40.34,131.29
1131.6,-236.49019607843138,117.0,-292.5098039215686,132.14,-76.88,108.12
1131.65,-204.49019607843138,133.0,-292.5098039215686,182.12,-92.0,86.7
1131.7,-188.49019607843138,133.0,258.0,203.37,-78.31,81.66
1131.75,-188.49019607843138,101.0,89.0,177.36,-51.54,105.53
1131.8,-204.49019607843138,117.0,-49.0,119.19,-21.4,140.85
1131.85,-172.49019607843138,166.0,-126.0,76.46,-1.17,170.88
1131.9,-172.49019607843138,166.0,-218.0,73.24,11.59,173.12
1131.95,-252.49019607843138,166.0,-310.0,68.37,13.94,142.53
1132.0,200.01960784313727,199.0,270.5098039215686,40.23,11.63,93.7
1132.05,231.01960784313727,248.0,-264.0,25.95,7.78,32.84
1132.1,-188.49019607843138,183.0,-233.0,23.47,1.37,-30.96
1132.15,-188.49019607843138,166.0,-203.0,9.15,-9.78,-88.95
1132.2,263.01960784313724,-214.50980392156862,-156.0,27.53,-28.68,-107.36
1132.25,104.01960784313725,275.4901960784314,316.5098039215686,14.37,-51.5,-91.47
1132.3,152.01960784313727,-138.01960784313727,316.5098039215686,9.61,-66.31,-77.68
1132.35,295.01960784313724,220.98039215686273,132.50980392156862,24.27,-55.91,-62.74
1132.4,-29.49019607843137,-258.52941176470586,24.50980392156863,21.44,-40.79,-46.6
1132.45,81.50980392156863,134.47058823529412,24.50980392156863,7.3,-23.78,-33.3
1132.5,129.50980392156862,-160.52941176470588,9.509803921568627,-8.13,-7.33,-24.2
1132.55,-227.0,-204.01960784313727,-6.490196078431373,-5.08,2.14,-11.32
1132.6,-36.0,111.49019607843137,9.509803921568627,2.82,11.98,0.92
1132.65,138.0,264.0,55.509803921568626,-10.23,24.79,15.13
1132.7,186.0,232.0,116.50980392156863,-27.97,28.43,27.38
1132.75,-20.0,52.0,163.50980392156862,-31.68,24.72,34.41
1132.8,-163.0,52.0,209.50980392156862,-15.34,9.88,38.47
1132.85,-211.0,150.0,209.50980392156862,15.45,-16.05,32.21
1132.9,201.0,313.0,209.50980392156862,37.92,-39.92,9.88
1132.95,201.0,52.0,147.50980392156862,59.52,-45.45,-8.17
1133.0,-139.50980392156862,68.0,116.50980392156863,85.1,-35.72,17.33
1133.05,-27.50980392156863,-29.0,39.509803921568626,91.3,-26.34,51.21
1133.1,-43.509803921568626,-67.50980392156863,147.50980392156862,75.9,-3.55,63.53
1133.15,51.490196078431374,-312.5098039215686,147.50980392156862,37.08,52.75,120.62
1133.2,115.49019607843137,-165.50980392156862,-6.490196078431373,8.84,108.82,197.97
1133.25,178.49019607843138,-165.50980392156862,-190.49019607843138,-23.81,147.22,269.65
1133.3,-91.50980392156863,-45.0,-298.4901960784314,-34.52,157.89,-320.12
1133.35,-75.50980392156863,19.0,313.01960784313724,-89.71,124.36,-245.5
1133.4,-75.50980392156863,199.0,-98.49019607843137,-55.94,54.64,-178.83
1133.45,-59.509803921568626,313.0,209.50980392156862,-94.72,9.42,-188.17
1133.5,67.49019607843137,-62.0,89.0,-131.4,-56.96,-246.24
1133.55,67.49019607843137,166.0,227.0,-95.24,-90.98,322.04
1133.6,35.490196078431374,101.0,227.0,-153.87,-117.13,222.92
1133.65,19.49019607843137,84.0,12.0,-132.87,-156.71,141.34
1133.7,-202.50980392156862,172.50980392156862,-110.0,-140.78,-155.63,90.31
1133.75,-266.5098039215686,221.50980392156862,316.5098039215686,-112.04,-123.81,49.39
1133.8,-234.50980392156862,9.509803921568627,-83.49019607843137,-66.47,-48.67,16.42
1133.85,-107.50980392156863,-105.49019607843137,-237.49019607843138,39.11,17.47,-0.93
1133.9,-107.50980392156863,-317.4901960784314,36.01960784313726,14.61,11.77,-36.66
1133.95,4.490196078431373,-203.49019607843138,-313.4901960784314,15.28,-7.65,-70.02
1134.0,290.4901960784314,123.50980392156863,-236.49019607843138,-18.66,-21.72,-89.51
1134.05,-257.01960784313724,303.5098039215686,101.50980392156863,25.67,6.34,-64.42
1134.1,274.4901960784314,-78.0,193.50980392156862,33.79,19.89,-53.36
1134.15,-11.509803921568627,-160.0,239.50980392156862,69.7,7.01,-36.66
1134.2,249.0,-274.0,132.50980392156862,120.84,0.71,-47.16
1134.25,138.0,221.50980392156862,-52.490196078431374,66.45,18.07,-81.04
1134.3,106.0,-29.0,-313.4901960784314,106.14,14.32,-114.78
1134.35,-154.50980392156862,-268.4901960784314,-190.49019607843138,114.57,9.84,-137.32
1134.4,-107.50980392156863,68.0,282.01960784313724,132.67,-16.78,-138.72
1134.45,-123.50980392156863,303.5098039215686,-206.49019607843138,87.76,-23.99,-155.91
1134.5,-75.50980392156863,-241.0,-6.490196078431373,108.38,-33.44,-124.58
1134.55,-139.50980392156862,-143.0,24.50980392156863,147.65,-14.12,-113.59
1134.6,-91.50980392156863,172.50980392156862,-67.49019607843137,164.38,-30.01,-78.17
1134.65,-59.509803921568626,-258.0,-113.49019607843137,154.23,-12.2,-77.75
1134.7,-91.50980392156863,-111.0,-190.49019607843138,166.13,-6.18,-81.67
1134.75,-59.509803921568626,303.5098039215686,-98.49019607843137,116.6,-4.32,-95.67
1134.8,-170.50980392156862,183.0,-144.49019607843138,106.63,-23.26,-113.31
1134.85,249.0,-111.0,36.01960784313726,73.59,-4.11,-139.77
1134.9,313.0,74.50980392156863,-36.490196078431374,52.55,22.09,-114.47
1134.95,217.0,41.509803921568626,-175.49019607843138,35.23,14.78,-78.1
1135.0,170.0,107.50980392156863,132.50980392156862,-0.57,-7.68,-43.03
1135.05,186.0,123.50980392156863,147.50980392156862,21.68,-46.5,12.43
1135.1,201.0,-192.0,-113.49019607843137,4.67,-68.51,44.21
1135.15,90.0,-176.0,27.0,-5.15,-58.96,46.59
1135.2,-259.0,35.0,-175.49019607843138,-55.83,-43.07,43.13
1135.25,65.50980392156863,-18.50980392156863,267.01960784313724,47.9,0.53,7.99
1135.3,193.50980392156862,-149.50980392156862,-160.49019607843138,-71.16,5.85,-23.26
1135.35,-283.4901960784314,52.0,-283.4901960784314,21.3,9.46,-6.7
1135.4,-54.98039215686274,35.0,-160.49019607843138,-39.14,21.5,-15.7
1135.45,126.52941176470588,-182.50980392156862,236.01960784313727,5.62,2.39,-1.35
1135.5,-292.98039215686276,-182.50980392156862,-55.98039215686274,-8.97,-5.27,-16.05
1135.55,72.01960784313725,101.0,113.01960784313725,-20.9,-7.09,-23.22
1135.6,279.01960784313724,-94.0,159.01960784313727,-1.86,-3.06,-17.27
1135.65,-188.49019607843138,117.0,67.01960784313725,25.78,-8.42,-1.77
1135.7,-315.4901960784314,-263.5098039215686,36.01960784313726,6.81,-6.56,-2.78
1135.75,231.01960784313727,313.0,-267.4901960784314,86.15,-6.42,2.63
1135.8,-299.4901960784314,215.0,-6.490196078431373,143.52,22.76,-22.0
1135.85,231.01960784313727,199.0,24.50980392156863,87.48,36.16,-67.08
1135.9,104.01960784313725,215.0,39.509803921568626,40.51,41.45,-137.92
1135.95,88.01960784313725,281.0,86.50980392156863,86.61,13.34,-224.02
1136.0,184.01960784313727,232.0,286.5098039215686,42.89,-31.94,-299.3
1136.05,231.01960784313727,133.0,316.5098039215686,33.27,-101.52,314.37
1136.1,-236.49019607843138,166.0,-279.0,15.45,-223.46,289.63
1136.15,-172.49019607843138,133.0,-264.0,10.9,-230.21,322.18
1136.2,-61.490196078431374,150.0,-249.0,22.21,-236.58,-313.2
1136.25,-77.49019607843137,183.0,-279.0,39.78,-303.08,-265.35
1136.3,-188.49019607843138,199.0,316.5098039215686,48.39,-313.27,-224.16
1136.35,-267.4901960784314,215.0,239.50980392156862,58.99,-290.66,-257.79
