rel_time,acc_x,acc_y,acc_z,gyro_x,gyro_y,gyro_z
2850.0,-77.49019607843137,13.490196078431373,-64.0,60.06,-15.51,-5.77
2850.05,-93.49019607843137,62.490196078431374,-95.0,66.71,-11.8,-10.49
2850.1,-29.49019607843137,62.490196078431374,-49.0,90.05,2.05,-7.66
2850.15,-13.490196078431373,46.490196078431374,-203.0,43.26,-3.71,-9.62
2850.2,-188.49019607843138,-149.50980392156862,-95.0,38.74,-0.91,-1.08
2850.25,-140.49019607843138,-2.5098039215686274,-141.0,36.08,-1.96,0.07
2850.3,-140.49019607843138,-84.50980392156863,-126.0,12.77,2.79,-0.9
2850.35,-204.49019607843138,-84.50980392156863,-218.0,6.33,2.61,1.26
2850.4,-124.49019607843137,-35.509803921568626,-279.0,15.75,0.3,2.24
2850.45,-77.49019607843137,13.490196078431373,-218.0,15.08,-1.82,2.03
2850.5,-108.49019607843137,-51.509803921568626,-218.0,0.03,-2.1,1.89
2850.55,-124.49019607843137,-84.50980392156863,-249.0,-16.23,1.95,2.48
2850.6,-124.49019607843137,-51.509803921568626,-295.0,-35.13,-0.67,4.9
2850.65,-108.49019607843137,-51.509803921568626,-172.0,-85.85,-5.53,4.69
2850.7,-124.49019607843137,-149.50980392156862,-110.0,-101.07,0.16,6.4
2850.75,-156.49019607843138,-84.50980392156863,-172.0,-85.29,7.48,11.06
2850.8,-108.49019607843137,46.490196078431374,-110.0,-48.54,9.82,9.8
2850.85,-61.490196078431374,79.49019607843137,-95.0,-28.9,10.63,3.39
2850.9,-61.490196078431374,13.490196078431373,-33.0,-24.46,9.68,6.02
2850.95,-77.49019607843137,62.490196078431374,-64.0,-25.3,10.14,0.8
2851.0,-93.49019607843137,46.490196078431374,-33.0,-16.3,9.68,5.42
2851.05,-77.49019607843137,46.490196078431374,-18.0,-4.86,7.62,6.89
2851.1,-93.49019607843137,62.490196078431374,-79.0,-12.98,7.37,9.87
2851.15,-13.490196078431373,30.49019607843137,-18.0,7.31,2.72,9.03
2851.2,18.50980392156863,79.49019607843137,12.0,-0.34,0.34,0.94
2851.25,-13.490196078431373,-18.50980392156863,-3.0,2.45,-4.31,-0.2
2851.3,-13.490196078431373,95.49019607843137,-33.0,25.9,-11.41,-3.21
2851.35,-29.49019607843137,62.490196078431374,-3.0,20.96,-9.56,-11.02
2851.4,-45.490196078431374,13.490196078431373,-49.0,62.26,-4.97,-11.82
2851.45,-77.49019607843137,128.49019607843138,-110.0,57.08,-8.23,-3.04
2851.5,-140.49019607843138,79.49019607843137,-126.0,41.09,-13.79,-15.32
2851.55,-61.490196078431374,-35.509803921568626,-18.0,72.38,-21.21,-15.88
2851.6,-108.49019607843137,30.49019607843137,-64.0,37.2,-17.22,-11.02
2851.65,-140.49019607843138,-51.509803921568626,-126.0,44.55,-13.58,-10.6
2851.7,-156.49019607843138,-2.5098039215686274,-156.0,29.19,-10.71,-7.94
2851.75,-156.49019607843138,-84.50980392156863,-141.0,20.26,-4.27,-7.34
2851.8,-140.49019607843138,-51.509803921568626,-203.0,11.41,-0.74,-1.81
2851.85,-156.49019607843138,-35.509803921568626,-203.0,-1.6,6.78,1.47
2851.9,-172.49019607843138,-84.50980392156863,-187.0,-12.45,7.72,2.55
2851.95,-140.49019607843138,-100.50980392156863,-141.0,-29.08,14.02,3.85
2852.0,-156.49019607843138,-67.50980392156863,-218.0,-84.1,13.74,17.81
2852.05,-204.49019607843138,-116.50980392156863,-110.0,-90.96,16.96,21.31
2852.1,-188.49019607843138,-116.50980392156863,-64.0,-103.98,21.09,19.67
2852.15,-124.49019607843137,-67.50980392156863,-95.0,-58.93,17.42,15.82
2852.2,-45.490196078431374,111.49019607843137,-110.0,-37.93,11.82,10.99
2852.25,-29.49019607843137,62.490196078431374,-49.0,-30.55,7.34,9.69
2852.3,-77.49019607843137,13.490196078431373,-18.0,-26.07,10.31,9.31
2852.35,-93.49019607843137,62.490196078431374,12.0,-18.89,9.16,9.9
2852.4,-93.49019607843137,62.490196078431374,12.0,-17.63,6.22,7.35
2852.45,-45.490196078431374,62.490196078431374,12.0,-7.41,2.51,4.23
2852.5,2.5098039215686274,62.490196078431374,43.0,-2.86,-1.47,0.87
2852.55,-45.490196078431374,79.49019607843137,58.0,-2.48,-2.0,-2.13
2852.6,-61.490196078431374,30.49019607843137,27.0,6.51,-4.24,-2.69
2852.65,-45.490196078431374,62.490196078431374,43.0,18.3,-7.07,0.31
2852.7,-61.490196078431374,95.49019607843137,43.0,31.57,-11.31,-3.18
2852.75,-13.490196078431373,62.490196078431374,43.0,25.3,-11.8,-5.31
2852.8,-13.490196078431373,46.490196078431374,-18.0,6.26,-7.53,-0.87
2852.85,-77.49019607843137,46.490196078431374,-3.0,17.22,-13.9,-0.55
2852.9,-61.490196078431374,62.490196078431374,43.0,38.25,-13.58,-3.63
2852.95,-13.490196078431373,-18.50980392156863,89.0,79.52,-17.78,-3.07
2853.0,-61.490196078431374,144.49019607843138,-18.0,79.06,-17.43,-5.8
2853.05,-45.490196078431374,95.49019607843137,-95.0,60.23,-12.18,-7.87
2853.1,-61.490196078431374,-2.5098039215686274,-110.0,56.98,-13.16,-11.61
2853.15,-156.49019607843138,-51.509803921568626,-64.0,40.25,-8.89,-6.71
2853.2,-124.49019607843137,-35.509803921568626,-110.0,36.99,-5.18,-1.74
2853.25,-108.49019607843137,30.49019607843137,-187.0,12.35,-0.32,-1.67
2853.3,-93.49019607843137,-35.509803921568626,-203.0,3.57,1.95,-0.38
2853.35,-108.49019607843137,-18.50980392156863,-187.0,7.94,-0.7,0.31
2853.4,-108.49019607843137,-2.5098039215686274,-172.0,-4.47,3.0,0.07
2853.45,-140.49019607843138,-2.5098039215686274,-203.0,-12.8,6.88,0.45
2853.5,-108.49019607843137,-18.50980392156863,-218.0,-29.67,7.16,4.76
2853.55,-124.49019607843137,-51.509803921568626,-126.0,-65.2,4.68,6.16
2853.6,-140.49019607843138,-100.50980392156863,-110.0,-61.42,11.61,5.14
2853.65,-140.49019607843138,-18.50980392156863,-141.0,-57.57,9.61,13.4
2853.7,-77.49019607843137,-18.50980392156863,-141.0,-35.41,18.78,13.47
2853.75,-45.490196078431374,128.49019607843138,-172.0,-20.85,12.55,5.81
2853.8,-45.490196078431374,30.49019607843137,-79.0,-23.27,9.26,4.34
2853.85,-13.490196078431373,46.490196078431374,-79.0,-35.24,8.42,5.74
2853.9,-61.490196078431374,30.49019607843137,-49.0,-37.83,11.29,6.79
2853.95,-77.49019607843137,30.49019607843137,-49.0,-21.2,9.68,4.48
2854.0,-45.490196078431374,46.490196078431374,-64.0,35.38,-4.55,0.98
2854.05,2.5098039215686274,144.49019607843138,-18.0,70.77,-20.44,-6.4
2854.1,18.50980392156863,144.49019607843138,-33.0,54.25,-23.0,-11.37
2854.15,-45.490196078431374,-2.5098039215686274,-95.0,54.7,-24.29,-17.67
2854.2,-45.490196078431374,13.490196078431373,-126.0,39.13,-17.4,-2.06
2854.25,-77.49019607843137,46.490196078431374,-126.0,22.47,-10.99,4.44
2854.3,-108.49019607843137,-18.50980392156863,-64.0,14.31,-6.79,0.8
2854.35,-77.49019607843137,13.490196078431373,-172.0,-3.67,-12.18,8.15
2854.4,81.50980392156863,-182.50980392156862,-110.0,-5.52,-1.44,-5.38
2854.45,18.50980392156863,-35.509803921568626,-110.0,4.93,-10.22,-1.64
2854.5,-124.49019607843137,62.490196078431374,-79.0,12.0,-8.4,0.8
2854.55,-124.49019607843137,79.49019607843137,-95.0,13.19,-4.73,-1.04
2854.6,-124.49019607843137,46.490196078431374,-110.0,-5.87,-2.28,3.81
2854.65,-140.49019607843138,-84.50980392156863,-172.0,-10.46,2.47,-1.67
2854.7,-172.49019607843138,-18.50980392156863,-203.0,-32.51,5.55,-3.7
2854.75,-93.49019607843137,-2.5098039215686274,-141.0,-12.03,-0.18,0.14
2854.8,-61.490196078431374,62.490196078431374,-126.0,-10.53,2.19,2.94
2854.85,-93.49019607843137,-2.5098039215686274,-126.0,-12.8,0.9,0.24
2854.9,-77.49019607843137,13.490196078431373,-95.0,-9.2,1.77,0.73
2854.95,-77.49019607843137,13.490196078431373,-95.0,-0.52,0.02,2.94
2855.0,-77.49019607843137,-2.5098039215686274,-110.0,-23.37,9.05,2.76
2855.05,-124.49019607843137,-18.50980392156863,-95.0,-12.84,4.22,-0.38
2855.1,-93.49019607843137,-2.5098039215686274,-79.0,-25.33,11.5,4.37
2855.15,-140.49019607843138,62.490196078431374,-79.0,-22.53,6.08,3.29
2855.2,-61.490196078431374,13.490196078431373,-49.0,-65.86,14.51,6.79
2855.25,-93.49019607843137,-51.509803921568626,-33.0,-75.21,16.61,5.04
2855.3,-108.49019607843137,30.49019607843137,-64.0,-69.19,15.77,3.64
2855.35,-45.490196078431374,46.490196078431374,-3.0,-57.99,13.88,7.28
2855.4,-29.49019607843137,111.49019607843137,43.0,-66.0,8.7,6.05
2855.45,-45.490196078431374,13.490196078431373,120.0,-60.68,4.5,4.16
2855.5,-77.49019607843137,30.49019607843137,135.0,-56.73,8.53,11.65
2855.55,-61.490196078431374,79.49019607843137,43.0,-40.07,10.28,15.47
2855.6,-61.490196078431374,144.49019607843138,89.0,-31.53,5.34,10.53
2855.65,-93.49019607843137,79.49019607843137,243.0,-14.13,-0.39,-2.65
2855.7,-61.490196078431374,-84.50980392156863,258.0,36.64,-6.62,-12.63
2855.75,-61.490196078431374,13.490196078431373,166.0,197.96,-16.63,-5.94
2855.8,-29.49019607843137,226.49019607843138,73.0,232.33,-30.35,8.19
2855.85,-45.490196078431374,-302.01960784313724,166.0,86.03,-25.8,11.09
2855.9,-13.490196078431373,-2.5098039215686274,150.0,138.04,-20.55,5.21
2855.95,-29.49019607843137,95.49019607843137,-33.0,86.73,-8.4,-7.27
2856.0,-45.490196078431374,-100.50980392156863,-187.0,17.81,1.18,-6.78
2856.05,-93.49019607843137,-198.50980392156862,-203.0,-4.54,2.33,0.49
2856.1,-45.490196078431374,62.490196078431374,-218.0,2.52,1.88,-0.69
2856.15,-77.49019607843137,62.490196078431374,-218.0,13.47,-9.1,-4.47
2856.2,-13.490196078431373,-18.50980392156863,-203.0,42.8,-26.04,-13.08
2856.25,34.509803921568626,46.490196078431374,-156.0,29.57,-20.83,-10.74
2856.3,-140.49019607843138,-35.509803921568626,-264.0,-18.51,-1.33,1.71
2856.35,-236.49019607843138,-67.50980392156863,-295.0,-39.61,14.09,0.73
2856.4,-172.49019607843138,-35.509803921568626,-264.0,-28.62,10.52,-1.29
2856.45,-93.49019607843137,-35.509803921568626,-187.0,-7.66,7.23,1.12
2856.5,-61.490196078431374,62.490196078431374,-203.0,-9.55,5.55,-1.08
2856.55,-77.49019607843137,-35.509803921568626,-203.0,-8.22,4.4,-2.02
2856.6,-93.49019607843137,-2.5098039215686274,-218.0,-15.71,4.5,3.11
2856.65,-93.49019607843137,30.49019607843137,-172.0,-28.13,6.71,7.03
2856.7,-108.49019607843137,-2.5098039215686274,-156.0,-71.74,17.8,7.91
2856.75,-124.49019607843137,-18.50980392156863,-203.0,-87.39,15.32,6.96
2856.8,-93.49019607843137,-51.509803921568626,-156.0,-81.19,17.14,9.52
2856.85,-13.490196078431373,95.49019607843137,-126.0,-71.92,11.75,10.78
2856.9,18.50980392156863,62.490196078431374,-64.0,-73.07,8.46,5.84
2856.95,-29.49019607843137,46.490196078431374,12.0,-93.9,15.07,10.01
2857.0,-45.490196078431374,13.490196078431373,12.0,-80.7,20.92,19.67
2857.05,-61.490196078431374,79.49019607843137,58.0,-62.36,15.88,15.5
2857.1,-61.490196078431374,177.49019607843138,73.0,-34.29,4.54,-5.14
2857.15,-61.490196078431374,62.490196078431374,43.0,36.61,-4.55,-11.72
2857.2,-45.490196078431374,62.490196078431374,120.0,207.41,-30.1,-10.18
2857.25,-29.49019607843137,258.4901960784314,43.0,201.91,-41.72,2.66
2857.3,34.509803921568626,226.49019607843138,-18.0,224.42,-48.06,-3.21
2857.35,34.509803921568626,291.4901960784314,166.0,102.27,-37.21,-14.06
2857.4,-45.490196078431374,313.0,-64.0,56.49,-13.2,-12.56
2857.45,-188.49019607843138,-2.5098039215686274,193.50980392156862,24.43,-6.2,-7.59
2857.5,-93.49019607843137,-84.50980392156863,-264.0,9.69,2.93,-1.6
2857.55,-77.49019607843137,-2.5098039215686274,-295.0,-18.3,6.99,6.86
2857.6,-93.49019607843137,-84.50980392156863,-264.0,-33.38,11.89,1.85
2857.65,-124.49019607843137,-84.50980392156863,-295.0,-6.36,-2.24,-0.1
2857.7,-13.490196078431373,-18.50980392156863,-218.0,35.49,-16.07,-2.09
2857.75,49.509803921568626,79.49019607843137,-203.0,44.41,-27.44,-3.18
2857.8,34.509803921568626,30.49019607843137,-249.0,19.04,-14.49,-1.15
2857.85,-204.49019607843138,-51.509803921568626,316.5098039215686,-36.85,19.69,0.84
2857.9,-236.49019607843138,-100.50980392156863,239.50980392156862,-58.9,25.19,-5.49
2857.95,-156.49019607843138,-133.50980392156862,-233.0,-49.48,18.64,-0.27
2858.0,-93.49019607843137,13.490196078431373,-187.0,-11.09,8.25,5.39
2858.05,-45.490196078431374,46.490196078431374,-203.0,-29.43,7.93,14.49
2858.1,-77.49019607843137,-35.509803921568626,-218.0,-50.36,9.23,11.27
2858.15,-93.49019607843137,-51.509803921568626,-156.0,-90.08,15.32,16.34
2858.2,-93.49019607843137,-18.50980392156863,-187.0,-112.24,20.5,12.74
2858.25,-93.49019607843137,79.49019607843137,-141.0,-94.18,20.01,12.98
2858.3,34.509803921568626,46.490196078431374,-95.0,-84.17,20.18,8.82
2858.35,34.509803921568626,95.49019607843137,-33.0,-72.51,22.63,13.96
2858.4,-13.490196078431373,95.49019607843137,27.0,-66.77,27.5,20.37
2858.45,-13.490196078431373,79.49019607843137,12.0,-7.27,4.96,2.45
2858.5,-13.490196078431373,193.49019607843138,120.0,69.12,-20.62,-16.16
2858.55,-77.49019607843137,30.49019607843137,104.0,223.93,-29.33,-9.44
2858.6,-29.49019607843137,-318.01960784313724,-110.0,148.82,-30.49,4.62
2858.65,-13.490196078431373,160.49019607843138,-64.0,165.58,-36.58,2.17
2858.7,65.50980392156863,193.49019607843138,-79.0,161.31,-25.9,-10.81
2858.75,-13.490196078431373,-133.50980392156862,-64.0,112.38,6.29,6.61
2858.8,-140.49019607843138,-116.50980392156863,24.50980392156863,92.19,6.11,11.51
2858.85,-124.49019607843137,46.490196078431374,-264.0,44.17,-0.21,-0.87
2858.9,34.509803921568626,-198.50980392156862,-310.0,2.48,4.5,12.63
2858.95,-13.490196078431373,-133.50980392156862,147.50980392156862,-11.89,2.26,11.86
2859.0,-45.490196078431374,-116.50980392156863,147.50980392156862,-9.93,1.35,1.96
2859.05,-61.490196078431374,-116.50980392156863,224.50980392156862,-23.37,2.96,-5.98
2859.1,-29.49019607843137,-116.50980392156863,209.50980392156862,-42.62,8.7,-11.89
2859.15,-29.49019607843137,-100.50980392156863,193.50980392156862,-69.05,2.33,-13.01
2859.2,-29.49019607843137,-51.509803921568626,316.5098039215686,-118.82,15.11,-11.93
2859.25,-61.490196078431374,-84.50980392156863,270.5098039215686,-115.42,-12.36,21.45
2859.3,2.5098039215686274,13.490196078431373,301.5098039215686,-150.39,20.5,6.26
2859.35,145.50980392156862,-18.50980392156863,-249.0,-122.95,27.67,5.25
2859.4,65.50980392156863,111.49019607843137,-156.0,-94.21,27.01,13.86
2859.45,2.5098039215686274,193.49019607843138,-156.0,-74.4,28.58,22.12
2859.5,-13.490196078431373,144.49019607843138,-18.0,-43.95,8.07,2.59
2859.55,2.5098039215686274,79.49019607843137,58.0,25.02,-17.92,-22.46
2859.6,-29.49019607843137,-18.50980392156863,27.0,125.89,-16.24,-13.68
2859.65,-45.490196078431374,-302.01960784313724,-233.0,135.2,-33.36,2.31
2859.7,-13.490196078431373,-318.01960784313724,-110.0,185.78,-46.8,2.97
2859.75,81.50980392156863,209.49019607843138,-18.0,180.6,-34.3,-4.47
2859.8,2.5098039215686274,-133.50980392156862,-49.0,37.52,-10.29,2.34
2859.85,-108.49019607843137,-263.5098039215686,101.50980392156863,63.8,-16.63,0.91
2859.9,-61.490196078431374,46.490196078431374,-233.0,-3.42,-4.38,6.23
2859.95,2.5098039215686274,-149.50980392156862,-295.0,-26.14,4.5,1.75
2860.0,-61.490196078431374,-67.50980392156863,224.50980392156862,-27.82,6.46,-4.68
2860.05,-45.490196078431374,-100.50980392156863,-310.0,-37.72,0.83,-9.62
2860.1,-13.490196078431373,-35.509803921568626,-279.0,-5.52,-15.09,-13.29
2860.15,49.509803921568626,30.49019607843137,-295.0,8.96,-24.96,-7.55
2860.2,34.509803921568626,46.490196078431374,-310.0,26.98,-24.71,-2.58
2860.25,-124.49019607843137,30.49019607843137,-295.0,8.85,5.13,6.37
2860.3,-236.49019607843138,95.49019607843137,316.5098039215686,-27.75,19.73,3.01
2860.35,-188.49019607843138,-116.50980392156863,-233.0,-14.76,10.17,-6.19
2860.4,-61.490196078431374,-165.50980392156862,-203.0,-46.09,7.06,15.71
2860.45,-45.490196078431374,30.49019607843137,-295.0,12.04,0.51,13.51
2860.5,-188.49019607843138,-269.01960784313724,-249.0,-28.97,7.41,4.02
2860.55,18.50980392156863,-149.50980392156862,301.5098039215686,-56.94,10.94,4.2
2860.6,-77.49019607843137,13.490196078431373,-187.0,-100.44,19.62,2.55
2860.65,-61.490196078431374,-51.509803921568626,-233.0,-107.9,17.28,6.44
2860.7,-13.490196078431373,30.49019607843137,-187.0,-125.15,24.66,4.44
2860.75,-13.490196078431373,30.49019607843137,-110.0,-116.44,24.73,9.66
2860.8,-93.49019607843137,-35.509803921568626,-233.0,-86.97,24.21,22.4
2860.85,2.5098039215686274,-318.01960784313724,-33.0,-67.61,26.17,21.14
2860.9,18.50980392156863,128.49019607843138,58.0,-2.58,1.81,-20.85
2860.95,-61.490196078431374,-84.50980392156863,120.0,148.4,-7.46,-27.15
2861.0,-61.490196078431374,95.49019607843137,43.0,194.25,-33.92,-11.3
2861.05,34.509803921568626,-318.01960784313724,-18.0,203.66,-51.84,-0.13
2861.1,2.5098039215686274,193.49019607843138,89.0,171.64,-23.24,-14.9
2861.15,-29.49019607843137,62.490196078431374,-49.0,42.03,-11.52,-0.76
2861.2,-29.49019607843137,232.0,270.5098039215686,62.33,-7.25,-4.37
2861.25,-45.490196078431374,95.49019607843137,-264.0,10.15,0.27,1.29
2861.3,2.5098039215686274,-165.50980392156862,286.5098039215686,-1.36,-1.47,4.44
2861.35,-77.49019607843137,-2.5098039215686274,-279.0,-30.16,-2.14,3.15
2861.4,-156.49019607843138,-51.509803921568626,270.5098039215686,-18.93,5.41,-2.65
2861.45,-61.490196078431374,-18.50980392156863,-233.0,-31.49,2.26,2.27
2861.5,2.5098039215686274,-67.50980392156863,286.5098039215686,-62.85,14.02,8.92
2861.55,-61.490196078431374,144.49019607843138,-249.0,-88.12,9.61,0.59
2861.6,-29.49019607843137,-198.50980392156862,239.50980392156862,-46.3,2.86,-0.97
2861.65,-29.49019607843137,242.49019607843138,-110.0,-39.4,-0.7,-8.32
2861.7,-45.490196078431374,-84.50980392156863,-187.0,-85.08,3.21,-8.32
2861.75,-45.490196078431374,-18.50980392156863,-79.0,-55.36,11.57,-0.66
2861.8,-93.49019607843137,111.49019607843137,-249.0,-138.87,31.59,0.87
2861.85,-61.490196078431374,13.490196078431373,-33.0,-154.59,29.14,8.92
2861.9,-45.490196078431374,128.49019607843138,-110.0,-171.7,37.61,20.09
2861.95,-29.49019607843137,144.49019607843138,150.0,-48.75,14.06,15.78
2862.0,-13.490196078431373,291.4901960784314,212.0,0.94,-11.2,-4.61
2862.05,-93.49019607843137,-51.509803921568626,258.0,226.45,-33.57,-16.93
2862.1,-61.490196078431374,242.49019607843138,73.0,284.27,-54.08,-9.97
2862.15,65.50980392156863,-269.01960784313724,27.0,203.56,-52.64,0.8
2862.2,-45.490196078431374,-67.50980392156863,258.0,98.56,-18.97,-15.01
2862.25,-77.49019607843137,-247.50980392156862,-295.0,70.28,-16.24,-9.79
2862.3,-124.49019607843137,144.49019607843138,270.5098039215686,19.53,-1.44,4.27
2862.35,-172.49019607843138,30.49019607843137,-203.0,-50.11,8.88,6.44
2862.4,-93.49019607843137,-214.50980392156862,-249.0,-30.51,5.8,2.97
2862.45,-93.49019607843137,62.490196078431374,-187.0,-81.4,13.15,8.29
2862.5,-13.490196078431373,-149.50980392156862,-279.0,-19.03,5.27,8.54
2862.55,18.50980392156863,193.49019607843138,-264.0,12.21,0.27,9.55
2862.6,2.5098039215686274,128.49019607843138,-264.0,11.62,7.3,-2.86
2862.65,-93.49019607843137,30.49019607843137,-218.0,8.54,-4.69,-13.85
2862.7,-45.490196078431374,-133.50980392156862,-203.0,62.51,-15.96,-7.1
2862.75,-45.490196078431374,128.49019607843138,-233.0,43.54,-27.72,-7.1
2862.8,34.509803921568626,-18.50980392156863,-264.0,25.76,-7.88,4.65
2862.85,-267.4901960784314,-18.50980392156863,-280.0,-86.62,26.24,-8.99
2862.9,311.01960784313724,-198.50980392156862,301.5098039215686,-60.37,21.72,-3.77
2862.95,-283.4901960784314,13.490196078431373,-279.0,-8.04,12.24,-0.59
2863.0,-45.490196078431374,46.490196078431374,-187.0,-49.06,16.02,3.08
2863.05,-93.49019607843137,-133.50980392156862,-203.0,-65.93,17.73,6.05
2863.1,-108.49019607843137,-51.509803921568626,-249.0,-64.15,9.79,9.41
2863.15,-45.490196078431374,30.49019607843137,-141.0,-99.81,13.88,15.61
2863.2,34.509803921568626,79.49019607843137,-156.0,-77.06,9.4,14.35
2863.25,49.509803921568626,144.49019607843138,-79.0,-102.58,15.39,9.52
2863.3,18.50980392156863,-67.50980392156863,-49.0,-83.36,26.41,13.79
2863.35,34.509803921568626,160.49019607843138,-3.0,-57.95,24.31,25.51
2863.4,-108.49019607843137,177.49019607843138,27.0,45.99,-14.07,-3.63
2863.45,-61.490196078431374,79.49019607843137,104.0,171.22,-39.59,-26.24
2863.5,-172.49019607843138,-35.509803921568626,181.0,228.3,-33.22,9.48
2863.55,-61.490196078431374,-220.01960784313727,-233.0,165.27,-38.89,3.6
2863.6,34.509803921568626,62.490196078431374,-64.0,178.81,-17.75,-8.04
2863.65,2.5098039215686274,-100.50980392156863,12.0,29.71,6.5,-1.11
2863.7,-124.49019607843137,-263.5098039215686,9.509803921568627,58.87,-1.44,0.73
2863.75,-29.49019607843137,-2.5098039215686274,-218.0,11.06,15.49,11.37
2863.8,-124.49019607843137,13.490196078431373,286.5098039215686,-30.86,-4.45,-12.59
2863.85,34.509803921568626,133.0,-233.0,-73.35,26.62,-5.42
2863.9,-283.4901960784314,177.49019607843138,55.509803921568626,41.4,-0.25,1.78
2863.95,145.50980392156862,-51.509803921568626,-279.0,-20.71,16.65,3.01
2864.0,-61.490196078431374,177.49019607843138,209.50980392156862,1.54,2.37,-11.89
2864.05,161.50980392156862,-198.50980392156862,209.50980392156862,-0.69,-2.38,-2.55
2864.1,-188.49019607843138,30.49019607843137,-126.0,-11.51,11.4,-5.73
2864.15,-29.49019607843137,-165.50980392156862,86.50980392156863,-40.21,-2.31,0.77
2864.2,-124.49019607843137,62.490196078431374,-64.0,-103.63,16.61,-1.08
2864.25,-93.49019607843137,-133.50980392156862,224.50980392156862,-178.35,30.72,39.06
2864.3,-108.49019607843137,209.49019607843138,-187.0,-185.21,47.48,72.55
2864.35,-77.49019607843137,307.4901960784314,-279.0,-35.73,27.64,124.25
2864.4,-93.49019607843137,-171.01960784313727,-295.0,-107.72,19.38,58.03
2864.45,-220.49019607843138,95.49019607843137,-49.0,87.78,52.1,110.18
2864.5,224.50980392156862,-45.529411764705884,-301.98039215686276,82.0,-85.16,81.13
2864.55,240.50980392156862,-84.50980392156863,181.0,188.79,-124.53,80.11
2864.6,-243.0,-220.01960784313727,27.0,-6.15,-153.97,74.79
2864.65,-4.0,248.0,273.0,-32.3,-197.96,45.57
2864.7,-52.0,62.490196078431374,-276.5098039215686,-9.41,-229.67,45.67
2864.75,-84.0,-204.01960784313727,196.0,41.82,-228.1,77.52
2864.8,-36.0,-122.01960784313725,258.0,14.28,-204.12,111.61
2864.85,122.0,-24.019607843137255,181.0,2.94,-195.06,141.82
2864.9,154.0,-138.01960784313727,181.0,27.02,-193.94,168.84
2864.95,186.0,-40.01960784313726,58.0,44.17,-183.37,183.54
2865.0,233.0,-106.01960784313725,-3.0,9.52,-166.46,190.64
2865.05,-298.5098039215686,-122.01960784313725,-18.0,-137.65,-149.94,184.45
2865.1,-170.50980392156862,226.49019607843138,27.0,-118.82,-147.81,165.16
2865.15,-59.509803921568626,258.4901960784314,-18.0,-59.84,-130.41,141.26
2865.2,-123.50980392156863,-84.50980392156863,-64.0,-27.5,-97.55,117.88
2865.25,-202.50980392156862,-133.50980392156862,-110.0,-22.11,-74.17,77.38
2865.3,-123.50980392156863,166.0,-110.0,-51.69,-52.01,52.04
2865.35,-107.50980392156863,248.0,-264.0,-11.09,-40.15,37.59
2865.4,35.490196078431374,-280.5098039215686,-264.0,-49.9,-9.94,29.33
2865.45,131.49019607843138,-198.50980392156862,209.50980392156862,-72.79,-10.61,22.08
2865.5,51.490196078431374,-51.509803921568626,209.50980392156862,-35.94,-10.64,14.42
2865.55,-11.509803921568627,46.490196078431374,86.50980392156863,-3.0,-18.27,15.43
2865.6,-75.50980392156863,-18.50980392156863,116.50980392156863,-12.98,-14.6,-1.53
2865.65,-75.50980392156863,-280.5098039215686,116.50980392156863,-33.63,-13.62,-15.85
2865.7,-27.50980392156863,297.0,209.50980392156862,57.82,-15.61,-43.81
2865.75,-11.509803921568627,297.0,101.50980392156863,263.41,-27.09,-108.25
2865.8,-43.509803921568626,52.0,24.50980392156863,-184.65,-82.92,-141.39
2865.85,-27.50980392156863,-13.0,86.50980392156863,-221.92,-152.25,-113.18
2865.9,-91.50980392156863,-78.0,193.50980392156862,117.63,-153.16,-67.47
2865.95,-218.50980392156862,-94.0,-98.49019607843137,62.12,-117.53,-31.14
2866.0,217.0,35.0,-55.98039215686274,4.83,-65.35,7.7
2866.05,233.0,-62.0,-101.98039215686275,-10.07,-52.96,8.68
2866.1,90.0,35.0,-132.98039215686273,-1.67,-33.81,35.91
2866.15,-36.0,-13.0,5.019607843137255,2.1,-33.18,34.05
2866.2,-147.0,19.0,82.01960784313725,8.19,-26.43,35.07
2866.25,-131.0,-78.0,236.01960784313727,11.65,-19.46,35.56
2866.3,-147.0,-160.0,-313.4901960784314,2.76,-22.58,34.3
2866.35,-179.0,-160.0,-206.49019607843138,-4.4,-35.98,22.05
2866.4,-179.0,-258.0,-83.49019607843137,-63.34,-56.25,-5.1
2866.45,-211.0,-307.0,55.509803921568626,-113.11,-75.5,-38.84
2866.5,-290.0,-176.0,-6.490196078431373,-97.33,-87.19,-82.63
2866.55,256.5098039215686,-45.0,-67.49019607843137,-93.44,-90.72,-125.85
2866.6,65.50980392156863,101.0,-52.490196078431374,-106.18,-92.72,-170.41
2866.65,-93.49019607843137,150.0,-98.49019607843137,-148.43,-100.45,-240.65
2866.7,200.01960784313727,264.0,-129.49019607843138,-284.26,-60.76,-288.43
2866.75,-38.98039215686274,281.0,-98.49019607843137,-300.75,-6.34,-278.91
2866.8,72.01960784313725,-263.5098039215686,-6.490196078431373,-272.33,31.49,-255.77
2866.85,120.01960784313725,-198.50980392156862,163.50980392156862,-219.2,48.39,-235.89
2866.9,200.01960784313727,-84.50980392156863,224.50980392156862,-173.45,42.23,-215.03
2866.95,-283.4901960784314,-100.50980392156863,270.5098039215686,-121.72,27.39,-190.74
2867.0,-252.49019607843138,-84.50980392156863,-310.0,-78.95,-5.53,-150.49
2867.05,-156.49019607843138,-67.50980392156863,286.5098039215686,-52.63,-24.29,-111.12
2867.1,-172.49019607843138,-84.50980392156863,178.50980392156862,-42.1,-45.01,-72.79
2867.15,-156.49019607843138,-84.50980392156863,147.50980392156862,-5.87,-66.99,-37.34
2867.2,-299.4901960784314,-35.509803921568626,70.50980392156863,116.65,-72.63,31.53
2867.25,311.01960784313724,128.49019607843138,-175.49019607843138,202.61,-39.97,112.59
2867.3,295.01960784313724,111.49019607843137,-175.49019607843138,149.03,29.35,183.33
2867.35,-117.98039215686275,-182.50980392156862,-113.49019607843137,63.87,66.77,245.31
2867.4,25.019607843137255,150.0,24.50980392156863,37.73,77.51,268.41
2867.45,88.01960784313725,166.0,116.50980392156863,40.18,71.7,234.78
2867.5,104.01960784313725,166.0,224.50980392156862,35.35,59.73,168.28
2867.55,279.01960784313724,133.0,301.5098039215686,22.68,47.38,107.06
2867.6,-252.49019607843138,101.0,-218.0,14.73,27.32,52.6
2867.65,-108.49019607843137,68.0,-187.0,3.81,10.7,6.86
2867.7,-252.49019607843138,117.0,-203.0,-1.81,-21.11,-50.32
2867.75,-252.49019607843138,150.0,-233.0,-12.28,-32.8,-96.7
2867.8,-283.4901960784314,199.0,-295.0,-24.63,-42.53,-105.45
2867.85,168.01960784313727,-133.50980392156862,39.509803921568626,-36.46,-53.41,-85.88
2867.9,-172.49019607843138,-231.50980392156862,-98.49019607843137,-46.51,-29.26,-76.05
2867.95,-29.49019607843137,-214.50980392156862,-113.49019607843137,-65.34,-2.35,-73.81
2868.0,161.50980392156862,-296.5098039215686,-52.490196078431374,-67.37,12.13,-74.12
2868.05,193.50980392156862,-198.50980392156862,9.509803921568627,-66.35,1.7,-48.43
2868.1,193.50980392156862,-116.50980392156863,132.50980392156862,-18.02,-8.02,-9.65
2868.15,129.50980392156862,128.49019607843138,-190.49019607843138,7.98,-7.14,35.1
2868.2,18.50980392156863,209.49019607843138,-144.49019607843138,5.88,6.92,62.12
2868.25,311.01960784313724,-302.01960784313724,-283.4901960784314,12.46,8.11,109.13
2868.3,-172.49019607843138,226.49019607843138,-98.49019607843137,58.24,9.96,117.46
2868.35,-156.49019607843138,-318.01960784313724,-21.49019607843137,50.36,19.27,126.84
2868.4,-267.4901960784314,291.4901960784314,178.50980392156862,63.66,26.94,144.34
2868.45,-93.49019607843137,226.49019607843138,101.50980392156863,50.64,43.98,147.31
2868.5,18.50980392156863,79.49019607843137,178.50980392156862,28.94,55.43,137.58
2868.55,-29.49019607843137,13.490196078431373,255.50980392156862,-29.25,60.26,127.96
2868.6,-13.490196078431373,-100.50980392156863,-310.0,-43.29,59.14,118.4
2868.65,-29.49019607843137,-2.5098039215686274,286.5098039215686,-41.54,40.2,92.78
2868.7,113.50980392156863,-35.509803921568626,224.50980392156862,-42.34,23.54,33.63
2868.75,224.50980392156862,-18.50980392156863,116.50980392156863,-46.75,4.68,11.16
2868.8,-131.0,-133.50980392156862,39.509803921568626,-32.33,7.16,-19.66
2868.85,-36.0,-51.509803921568626,24.50980392156863,-37.76,6.01,-29.43
2868.9,-52.0,-51.509803921568626,55.509803921568626,-19.77,4.47,-25.82
2868.95,74.0,-2.5098039215686274,116.50980392156863,-28.2,12.31,-29.18
2869.0,74.0,-18.50980392156863,193.50980392156862,-42.27,14.2,-31.42
2869.05,106.0,-35.509803921568626,-295.0,-32.4,14.44,-34.92
2869.1,42.0,128.49019607843138,286.5098039215686,-16.62,16.86,-38.7
2869.15,11.0,160.49019607843138,316.5098039215686,-15.67,18.33,-32.82
2869.2,-4.0,209.49019607843138,255.50980392156862,-71.71,7.58,-50.46
2869.25,-131.0,79.49019607843137,-172.0,-21.13,-11.97,-68.87
2869.3,145.50980392156862,242.49019607843138,-264.0,28.91,-12.18,-63.97
2869.35,193.50980392156862,307.4901960784314,-249.0,15.68,-34.72,-48.08
2869.4,-172.49019607843138,-285.01960784313724,-110.0,-7.34,-37.73,-17.04
2869.45,81.50980392156863,242.49019607843138,-249.0,-27.99,-33.57,-12.07
2869.5,18.50980392156863,160.49019607843138,-218.0,-127.92,-20.27,41.44
2869.55,145.50980392156862,291.4901960784314,70.50980392156863,80.29,-32.66,31.43
2869.6,145.50980392156862,-40.01960784313726,316.5098039215686,28.7,-21.07,2.9
2869.65,193.50980392156862,-165.50980392156862,-187.0,-53.65,-3.22,-22.32
2869.7,-131.0,-116.50980392156863,104.0,36.19,-0.14,-38.35
2869.75,-243.0,-171.01960784313727,-110.0,10.29,23.96,-31.25
2869.8,-211.0,-302.01960784313724,70.50980392156863,-34.64,17.28,-13.99
2869.85,288.5098039215686,-198.50980392156862,193.50980392156862,40.88,-4.31,46.65
2869.9,65.50980392156863,-106.01960784313725,86.50980392156863,8.36,22.04,53.06
2869.95,-156.49019607843138,193.49019607843138,193.50980392156862,-4.82,22.46,34.26
2870.0,-204.49019607843138,79.49019607843137,-310.0,-47.8,27.71,16.27
2870.05,-61.490196078431374,-35.509803921568626,286.5098039215686,-53.02,58.65,5.56
2870.1,113.50980392156863,46.490196078431374,-249.0,-87.32,97.5,-8.71
2870.15,256.5098039215686,-2.5098039215686274,-79.0,-97.05,140.83,-18.93
2870.2,-195.0,193.49019607843138,12.0,-59.49,129.21,-9.41
2870.25,-20.0,-302.01960784313724,135.0,-63.83,116.08,4.23
2870.3,-20.0,-286.01960784313724,104.0,-66.91,84.41,21.59
2870.35,58.0,-269.01960784313724,73.0,-51.3,60.61,24.39
2870.4,42.0,-253.01960784313727,89.0,-62.47,41.81,9.03
2870.45,-36.0,-302.01960784313724,89.0,4.72,11.5,7.87
2870.5,-4.0,-236.01960784313727,120.0,-33.84,-3.64,-2.51
2870.55,-20.0,242.49019607843138,166.0,-2.23,-20.51,-5.35
2870.6,-52.0,-204.01960784313727,135.0,-30.09,-29.33,-7.73
2870.65,-52.0,-285.01960784313724,181.0,-36.74,-26.67,-0.9
2870.7,-84.0,307.4901960784314,181.0,-62.75,-20.86,-0.41
2870.75,-100.0,291.4901960784314,181.0,-71.11,-7.6,-4.82
2870.8,-195.0,226.49019607843138,196.0,-94.07,4.71,-16.65
2870.85,-227.0,209.49019607843138,273.0,-136.95,6.46,-26.35
2870.9,-179.0,242.49019607843138,-122.50980392156863,-88.68,-2.52,-17.0
2870.95,-243.0,291.4901960784314,-122.50980392156863,-51.9,2.05,-9.44
2871.0,-227.0,177.49019607843138,-276.5098039215686,-49.73,8.42,-15.53
2871.05,-195.0,46.490196078431374,-138.50980392156862,-2.34,11.15,-23.44
2871.1,-259.0,177.49019607843138,-61.509803921568626,34.96,6.74,-28.62
2871.15,-211.0,-67.50980392156863,-15.509803921568627,4.86,7.44,-28.45
2871.2,272.5098039215686,-100.50980392156863,46.490196078431374,128.87,-98.81,-32.44
2871.25,-124.49019607843137,-51.509803921568626,-319.01960784313724,214.16,-146.41,-42.73
2871.3,-140.49019607843138,128.49019607843138,-15.509803921568627,12.56,41.04,-31.07
2871.35,170.0,248.0,-264.0,-190.57,154.41,15.96
2871.4,-68.0,40.98039215686274,150.0,23.52,-112.25,-41.43
2871.45,301.52941176470586,101.0,172.98039215686273,-26.8,-134.61,-80.56
2871.5,104.01960784313725,242.49019607843138,49.98039215686274,92.47,79.37,109.48
2871.55,-98.01960784313725,215.47058823529412,201.52941176470588,-42.06,124.17,65.45
2871.6,-313.5098039215686,-280.5098039215686,150.0,15.54,-1.93,-21.94
2871.65,34.509803921568626,199.0,292.4901960784314,34.4,-20.72,-0.03
2871.7,193.50980392156862,-214.50980392156862,-150.01960784313727,32.23,9.44,11.72
2871.75,27.0,95.49019607843137,89.0,31.18,0.69,-39.05
2871.8,256.5098039215686,-280.5098039215686,-46.509803921568626,14.14,15.32,-1.6
2871.85,-131.0,-78.52941176470588,-279.0,-20.26,8.88,21.24
2871.9,161.50980392156862,-89.01960784313725,-122.50980392156863,-10.28,16.09,13.09
2871.95,-306.0,46.490196078431374,-230.50980392156862,57.89,-13.62,9.17
2872.0,177.50980392156862,307.4901960784314,196.0,119.1,-11.45,10.29
2872.05,161.50980392156862,144.49019607843138,-246.50980392156862,-37.23,13.08,4.62
2872.1,-275.0,-35.509803921568626,-107.50980392156863,10.67,-8.54,-12.0
2872.15,-163.0,-73.01960784313725,181.0,-7.13,20.18,3.71
2872.2,-163.0,-269.01960784313724,150.0,26.28,-9.94,-12.42
2872.25,288.5098039215686,160.49019607843138,196.0,88.06,0.83,-15.6
2872.3,304.5098039215686,144.49019607843138,-92.50980392156863,77.73,19.66,4.65
2872.35,288.5098039215686,-269.01960784313724,135.0,141.68,-0.28,2.87
2872.4,-259.0,-122.01960784313725,135.0,83.82,14.76,11.09
2872.45,320.5098039215686,62.490196078431374,166.0,-44.06,16.89,4.2
2872.5,-306.0,-236.01960784313727,43.0,146.47,7.13,-13.54
2872.55,224.50980392156862,291.4901960784314,-156.0,280.94,9.02,-36.04
2872.6,272.5098039215686,128.49019607843138,-33.0,-258.88,-17.36,19.84
2872.65,304.5098039215686,-253.01960784313727,239.50980392156862,293.58,9.16,32.55
2872.7,240.50980392156862,-318.01960784313724,-113.49019607843137,73.67,13.18,28.38
2872.75,-275.0,-182.50980392156862,24.50980392156863,22.82,10.31,8.15
2872.8,272.5098039215686,215.0,-237.49019607843138,8.36,-3.92,-3.49
2872.85,304.5098039215686,313.0,-160.49019607843138,-40.14,2.3,-10.7
2872.9,288.5098039215686,-280.5098039215686,-252.49019607843138,-92.32,9.65,-18.16
2872.95,320.5098039215686,264.0,-206.49019607843138,-324.69,20.64,-27.08
2873.0,320.5098039215686,166.0,-160.49019607843138,97.43,42.13,-18.86
2873.05,-259.0,-263.5098039215686,132.50980392156862,192.11,65.75,-5.17
2873.1,-259.0,307.4901960784314,-295.0,-144.16,35.37,-0.59
2873.15,-227.0,-73.01960784313725,-49.0,-64.25,23.86,-11.33
2873.2,256.5098039215686,-253.01960784313727,27.0,-10.35,27.22,-17.35
2873.25,208.50980392156862,177.49019607843138,-49.0,43.71,8.7,-5.1
2873.3,208.50980392156862,242.49019607843138,196.0,76.37,-8.93,6.51
2873.35,240.50980392156862,242.49019607843138,304.0,52.74,0.97,-12.63
2873.4,288.5098039215686,62.490196078431374,12.0,97.65,-32.06,-9.79
2873.45,-306.0,193.49019607843138,-292.5098039215686,172.16,-58.07,-6.85
2873.5,304.5098039215686,-318.01960784313724,273.0,190.89,-48.76,5.0
2873.55,-124.49019607843137,258.4901960784314,-264.0,294.63,11.57,4.37
2873.6,-220.49019607843138,62.490196078431374,-206.49019607843138,260.36,92.53,23.97
2873.65,295.01960784313724,160.49019607843138,-175.49019607843138,54.91,140.72,74.23
2873.7,-149.98039215686273,-51.509803921568626,252.01960784313727,47.88,132.99,-11.51
2873.75,-77.49019607843137,-149.50980392156862,-113.49019607843137,-213.42,139.29,-119.03
2873.8,177.50980392156862,-209.0,-21.49019607843137,286.12,155.77,-234.98
2873.85,320.5098039215686,-258.0,-279.0,162.19,210.27,-248.74
2873.9,208.50980392156862,156.50980392156862,73.0,-163.88,-197.3,-171.25
2873.95,203.98039215686273,42.92156862745098,246.49019607843138,228.51,45.98,65.76
2874.0,-79.47058823529412,-24.901960784313726,140.52941176470588,-230.22,87.87,117.04
2874.05,194.49019607843138,117.47058823529412,-75.47058823529412,-34.12,188.22,154.31
2874.1,265.0,117.0,-24.980392156862745,-233.69,183.95,174.68
2874.15,-282.5098039215686,-94.0,-55.98039215686274,-207.3,98.65,164.08
2874.2,-250.50980392156862,193.49019607843138,298.01960784313724,-308.76,78.67,78.08
2874.25,11.0,160.49019607843138,-113.49019607843137,-234.04,44.89,75.07
2874.3,-290.0,-106.01960784313725,-126.0,-26.73,9.86,66.43
2874.35,-227.0,-122.01960784313725,-110.0,-42.41,13.29,5.56
2874.4,-275.0,46.490196078431374,-203.0,-78.39,-0.77,6.02
2874.45,-29.49019607843137,-84.50980392156863,-95.0,-49.34,-47.11,13.58
2874.5,113.50980392156863,-100.50980392156863,-141.0,123.65,-106.05,36.33
2874.55,-100.0,111.49019607843137,-218.0,136.29,-91.21,32.86
2874.6,-243.0,62.490196078431374,55.509803921568626,72.38,-87.75,-4.26
2874.65,186.0,-149.50980392156862,24.50980392156863,47.81,-82.15,-13.96
2874.7,201.0,-51.509803921568626,-113.49019607843137,-42.45,-37.63,2.17
2874.75,186.0,13.490196078431373,-160.49019607843138,33.0,-3.43,11.86
2874.8,217.0,-122.01960784313725,129.01960784313727,-173.56,106.88,19.28
2874.85,-234.50980392156862,209.49019607843138,-55.98039215686274,-237.61,93.4,49.52
2874.9,83.49019607843137,-133.50980392156862,301.5098039215686,-280.31,66.66,53.51
2874.95,226.49019607843138,-302.01960784313724,-33.0,-123.44,0.97,6.47
2875.0,-250.50980392156862,46.490196078431374,89.0,3.99,-43.09,-15.53
2875.05,74.0,-84.50980392156863,43.0,21.98,-32.62,-7.66
2875.1,-116.0,62.490196078431374,316.5098039215686,60.55,-9.98,-14.55
2875.15,-179.0,13.490196078431373,-80.0,92.85,-41.02,-35.87
2875.2,58.0,-263.5098039215686,-187.0,95.9,-60.73,-42.38
2875.25,154.0,79.49019607843137,-264.0,-38.95,-20.44,-29.64
2875.3,-313.5098039215686,209.49019607843138,-83.49019607843137,44.13,48.95,14.21
2875.35,281.0,106.98039215686275,-190.49019607843138,-109.54,121.09,43.47
2875.4,-59.509803921568626,-8.019607843137255,-267.4901960784314,-181.96,91.37,61.18
2875.45,147.49019607843138,275.4901960784314,-64.0,-158.68,9.33,54.95
2875.5,4.490196078431373,128.49019607843138,-184.50980392156862,92.47,-72.98,13.47
2875.55,313.0,291.4901960784314,-184.50980392156862,133.38,-84.6,-7.87
2875.6,-20.0,-231.50980392156862,43.0,42.63,-29.47,-11.26
2875.65,-84.0,-280.5098039215686,116.50980392156863,114.83,-29.4,-21.27
2875.7,170.0,160.49019607843138,209.50980392156862,127.92,-59.47,-38.39
2875.75,-298.5098039215686,62.490196078431374,-264.0,-16.69,-38.36,-33.73
2875.8,138.0,-84.50980392156863,162.50980392156862,-2.41,8.7,2.87
2875.85,154.0,-204.01960784313727,-236.49019607843138,-7.59,78.25,34.26
2875.9,313.0,-204.01960784313727,175.01960784313727,-112.48,129.07,32.93
2875.95,281.0,226.49019607843138,-160.49019607843138,-191.34,107.89,27.4
2876.0,-59.509803921568626,-231.50980392156862,-126.0,37.06,-22.3,26.32
2876.05,-59.509803921568626,-236.01960784313727,-169.50980392156862,86.8,-60.83,11.13
2876.1,-59.509803921568626,177.49019607843138,135.0,73.01,-85.72,-1.95
2876.15,-107.50980392156863,13.490196078431373,-292.5098039215686,-104.22,-57.51,-46.86
2876.2,-43.509803921568626,-231.50980392156862,270.5098039215686,92.36,-65.8,-9.62
2876.25,90.0,177.49019607843138,-218.0,283.85,-58.0,37.97
2876.3,224.50980392156862,-8.019607843137255,239.50980392156862,-62.99,-68.08,76.54
2876.35,65.50980392156863,-116.50980392156863,-49.0,-198.13,-107.03,72.76
2876.4,281.0,-84.50980392156863,-95.0,-186.33,-124.92,23.03
2876.45,226.49019607843138,-286.01960784313724,73.0,-28.55,-55.58,39.76
2876.5,131.49019607843138,8.980392156862745,-9.980392156862745,-34.12,-74.87,-7.73
2876.55,99.49019607843137,-18.50980392156863,270.5098039215686,-8.46,-47.64,-28.17
2876.6,-116.0,-214.50980392156862,-298.4901960784314,80.04,-41.06,-4.37
2876.65,249.0,-318.01960784313724,-279.0,-60.23,-68.57,17.22
2876.7,-282.5098039215686,160.49019607843138,286.5098039215686,-9.02,-158.13,21.21
2876.75,90.0,242.49019607843138,43.0,-14.73,-244.16,30.2
2876.8,233.0,160.49019607843138,-184.50980392156862,13.44,-173.85,47.28
2876.85,-52.0,275.4901960784314,270.5098039215686,-87.95,-154.07,37.06
2876.9,-36.0,-2.5098039215686274,221.01960784313727,-93.51,-137.9,13.68
2876.95,-68.0,307.4901960784314,193.50980392156862,-189.2,-30.03,-21.2
2877.0,-68.0,-165.50980392156862,178.50980392156862,-287.52,-7.46,-79.2
2877.05,233.0,258.4901960784314,212.0,-312.68,-71.16,-124.45
2877.1,58.0,-269.01960784313724,43.0,-205.69,-79.07,-170.69
2877.15,-68.0,-106.01960784313725,-138.50980392156862,-42.41,-109.24,-112.87
2877.2,145.50980392156862,285.98039215686276,273.0,81.34,-101.78,-115.42
2877.25,256.5098039215686,-269.01960784313724,30.49019607843137,-3.11,-61.67,-104.36
2877.3,65.50980392156863,-231.50980392156862,166.0,54.25,-64.89,-128.41
2877.35,-275.0,79.49019607843137,-276.5098039215686,124.11,-84.63,-178.77
2877.4,-147.0,19.0,-184.50980392156862,224.98,-76.3,-124.59
2877.45,304.5098039215686,-40.01960784313726,196.0,230.82,-99.75,-107.55
2877.5,-275.0,177.49019607843138,258.0,-79.05,-99.19,-82.77
2877.55,-179.0,-171.01960784313727,273.0,229.46,-92.05,-87.0
2877.6,256.5098039215686,286.5098039215686,27.0,187.81,-118.72,-98.13
2877.65,81.50980392156863,46.490196078431374,-126.0,66.39,-95.66,-74.3
2877.7,152.01960784313727,-67.50980392156863,-249.0,116.2,-85.51,-34.75
2877.75,231.01960784313727,111.49019607843137,-203.0,103.39,-56.77,-24.81
2877.8,-299.4901960784314,-133.50980392156862,58.0,108.5,-20.23,-6.68
2877.85,25.019607843137255,-149.50980392156862,-18.0,-8.78,12.1,25.44
2877.9,-101.98039215686275,-198.50980392156862,-249.0,-14.66,6.88,9.73
2877.95,72.01960784313725,-231.50980392156862,-95.0,-85.39,37.3,25.3
2878.0,-6.980392156862745,232.0,178.50980392156862,82.04,16.37,2.59
2878.05,247.01960784313727,-182.50980392156862,316.5098039215686,135.45,-13.55,-19.7
2878.1,168.01960784313727,-198.50980392156862,-156.0,172.37,-30.42,-25.16
2878.15,-86.98039215686275,133.0,-3.0,66.57,-3.64,52.18
2878.2,-197.98039215686273,117.0,104.0,67.13,-24.61,52.74
2878.25,25.019607843137255,313.0,-33.0,-52.32,-46.8,56.38
2878.3,216.01960784313727,313.0,-49.0,-192.21,-82.85,53.48
2878.35,-140.49019607843138,-198.50980392156862,-95.0,-286.61,-131.04,26.7
2878.4,18.50980392156863,-100.50980392156863,119.0,-95.37,-174.97,-1.25
2878.45,161.50980392156862,275.4901960784314,27.0,286.23,-4.06,-58.16
2878.5,34.509803921568626,-241.52941176470588,-233.0,-42.31,41.32,-31.88
2878.55,65.50980392156863,3.0,282.01960784313724,253.01,-25.17,-12.56
2878.6,-220.49019607843138,291.4901960784314,166.0,154.98,7.34,-28.62
2878.65,168.01960784313727,-35.509803921568626,-199.50980392156862,52.08,15.04,-22.88
2878.7,184.01960784313727,-247.50980392156862,273.0,65.59,5.73,25.37
2878.75,-267.4901960784314,-84.50980392156863,-141.0,59.85,21.51,54.46
2878.8,311.01960784313724,-214.50980392156862,224.50980392156862,79.24,9.61,57.08
2878.85,-252.49019607843138,264.0,-310.0,102.09,-16.49,47.63
2878.9,-156.49019607843138,150.0,-218.0,114.2,-35.63,22.15
2878.95,-77.49019607843137,183.0,-233.0,102.72,-45.12,-11.09
2879.0,-61.490196078431374,166.0,-279.0,95.09,-38.15,-28.34
2879.05,-140.49019607843138,248.0,316.5098039215686,96.14,-33.11,-28.38
2879.1,-124.49019607843137,-296.5098039215686,224.50980392156862,123.41,-33.64,-33.0
2879.15,-140.49019607843138,-263.5098039215686,193.50980392156862,100.17,-31.64,-34.92
2879.2,-299.4901960784314,-280.5098039215686,162.50980392156862,105.59,-28.39,-34.26
2879.25,41.01960784313726,-182.50980392156862,147.50980392156862,115.5,-15.09,13.4
2879.3,88.01960784313725,-149.50980392156862,101.50980392156863,184.8,-14.49,35.03
2879.35,-299.4901960784314,-198.50980392156862,316.5098039215686,159.98,22.18,24.95
2879.4,216.01960784313727,-247.50980392156862,316.5098039215686,79.24,48.53,33.81
2879.45,263.01960784313724,248.0,-79.0,73.11,35.44,47.04
2879.5,-252.49019607843138,-280.5098039215686,-79.0,85.26,17.45,51.45
2879.55,-299.4901960784314,-280.5098039215686,43.0,93.31,1.35,58.97
2879.6,-299.4901960784314,-231.50980392156862,27.0,119.84,-2.03,83.4
2879.65,-315.4901960784314,-133.50980392156862,-33.0,162.89,11.36,115.22
2879.7,295.01960784313724,-67.50980392156863,-218.0,216.54,35.76,123.58
2879.75,120.01960784313725,13.490196078431373,301.5098039215686,139.79,75.52,164.22
2879.8,72.01960784313725,-133.50980392156862,55.509803921568626,210.45,64.88,195.89
2879.85,-204.49019607843138,-198.50980392156862,9.509803921568627,182.21,74.47,187.84
2879.9,295.01960784313724,-280.5098039215686,-98.49019607843137,129.29,86.68,172.79
2879.95,311.01960784313724,183.0,-83.49019607843137,110.21,87.66,149.55
2880.0,-156.49019607843138,52.0,-52.490196078431374,94.11,69.04,129.5
2880.05,49.509803921568626,35.0,24.50980392156863,93.73,43.07,119.38
2880.1,193.50980392156862,52.0,-6.490196078431373,74.3,26.73,120.43
2880.15,304.5098039215686,35.0,-98.49019607843137,74.51,19.73,127.85
2880.2,-227.0,52.0,-129.49019607843138,66.64,20.67,137.62
2880.25,-179.0,101.0,-236.49019607843138,36.96,15.46,130.3
2880.3,-116.0,101.0,298.01960784313724,2.62,11.64,119.62
2880.35,-195.0,117.0,175.01960784313727,29.32,-19.64,120.67
2880.4,-116.0,297.0,190.01960784313727,23.55,-26.39,117.49
2880.45,-243.0,313.0,113.01960784313725,19.8,-13.65,96.91
2880.5,-275.0,150.0,-252.49019607843138,21.2,-13.62,81.16
2880.55,-259.0,68.0,-160.49019607843138,27.36,-21.56,65.41
2880.6,-195.0,52.0,-36.490196078431374,7.97,-28.42,45.74
2880.65,-227.0,68.0,-113.49019607843137,0.83,-45.05,24.77
2880.7,-306.0,68.0,-160.49019607843138,-5.53,-73.15,-9.06
2880.75,224.50980392156862,-13.0,-113.49019607843137,-21.77,-117.08,-51.66
2880.8,-61.490196078431374,35.0,-113.49019607843137,-69.16,-124.04,-65.55
2880.85,295.01960784313724,52.0,-144.49019607843138,-121.94,-134.19,-83.79
2880.9,279.01960784313724,-78.0,9.509803921568627,-321.4,-102.59,-113.15
2880.95,184.01960784313727,-127.0,163.50980392156862,302.53,-29.12,-117.53
2881.0,216.01960784313727,-45.0,193.50980392156862,-189.84,38.21,-62.05
2881.05,-220.49019607843138,-312.5098039215686,270.5098039215686,93.93,-2.7,-71.47
2881.1,-13.490196078431373,226.49019607843138,-236.49019607843138,59.56,-32.62,-67.44
2881.15,-13.490196078431373,-263.5098039215686,132.50980392156862,54.35,-35.11,-36.4
2881.2,-61.490196078431374,-263.5098039215686,9.509803921568627,54.38,-38.36,5.8
2881.25,34.509803921568626,-231.50980392156862,-36.490196078431374,12.14,-49.74,20.54
2881.3,-61.490196078431374,-263.5098039215686,-206.49019607843138,-80.78,-58.84,24.74
2881.35,-315.4901960784314,-296.5098039215686,-267.4901960784314,-15.01,-40.5,67.37
2881.4,-315.4901960784314,-67.50980392156863,-252.49019607843138,117.87,-8.68,66.7
2881.45,231.01960784313727,62.490196078431374,9.509803921568627,29.01,54.52,65.2
2881.5,247.01960784313727,-263.5098039215686,-310.0,81.33,57.63,86.48
2881.55,-172.49019607843138,-165.50980392156862,-218.0,182.87,42.65,90.68
2881.6,-93.49019607843137,-2.5098039215686274,-218.0,209.85,8.07,74.89
2881.65,-61.490196078431374,79.49019607843137,12.0,70.87,-6.72,60.93
2881.7,-220.49019607843138,-198.50980392156862,-18.0,-117.49,-34.02,37.02
2881.75,247.01960784313727,-280.5098039215686,73.0,-146.05,-59.92,21.73
2881.8,263.01960784313724,-280.5098039215686,73.0,-151.65,-79.24,-33.32
2881.85,88.01960784313725,215.0,-18.0,-92.15,-66.26,-61.0
2881.9,41.01960784313726,-198.50980392156862,301.5098039215686,62.15,72.44,49.38
2881.95,57.01960784313726,204.98039215686273,-105.47058823529412,80.56,76.39,38.6
2882.0,-299.4901960784314,133.0,98.01960784313725,-14.38,46.15,18.23
2882.05,177.50980392156862,-160.0,24.50980392156863,9.83,28.83,-2.17
2882.1,256.5098039215686,150.0,-233.0,285.38,2.93,-22.15
2882.15,145.50980392156862,62.490196078431374,286.5098039215686,102.37,-5.92,-35.38
2882.2,-29.49019607843137,-45.0,-233.0,-43.96,11.71,-8.26
2882.25,-220.49019607843138,-94.0,132.50980392156862,19.91,25.54,9.48
2882.3,295.01960784313724,264.0,-6.490196078431373,72.41,25.75,6.19
2882.35,41.01960784313726,52.0,86.50980392156863,148.53,53.78,2.93
2882.4,-276.98039215686276,166.0,-36.490196078431374,86.79,48.6,-18.23
2882.45,-260.98039215686276,3.0,55.509803921568626,0.76,74.43,-7.17
2882.5,88.01960784313725,-111.0,-67.49019607843137,3.21,74.05,16.51
2882.55,-124.49019607843137,-192.0,86.50980392156863,27.82,67.99,-5.21
2882.6,18.50980392156863,-209.0,132.50980392156862,-15.64,58.05,-36.68
2882.65,2.5098039215686274,205.50980392156862,86.50980392156863,-40.84,39.05,-78.57
2882.7,34.509803921568626,-225.0,147.50980392156862,-165.48,33.83,-96.74
2882.75,65.50980392156863,-192.0,-310.0,-202.54,25.36,-118.72
2882.8,2.5098039215686274,101.0,-233.0,-292.98,8.95,-153.61
2882.85,-93.49019607843137,166.0,-141.0,-309.26,0.9,-203.14
2882.9,311.01960784313724,-198.50980392156862,-203.0,-238.56,21.34,-214.48
2882.95,-117.98039215686275,79.49019607843137,193.50980392156862,-211.05,40.06,-202.93
2883.0,-70.98039215686275,30.49019607843137,147.50980392156862,-192.39,57.11,-186.51
2883.05,-299.4901960784314,-182.50980392156862,132.50980392156862,-193.09,67.01,-180.88
2883.1,-61.490196078431374,-263.5098039215686,255.50980392156862,-166.0,79.26,-174.96
2883.15,-156.49019607843138,-165.50980392156862,316.5098039215686,-104.89,59.56,-159.07
2883.2,-156.49019607843138,-2.5098039215686274,301.5098039215686,-115.67,19.8,-129.78
2883.25,-220.49019607843138,46.490196078431374,286.5098039215686,-103.67,-35.81,-104.82
2883.3,-315.4901960784314,13.490196078431373,316.5098039215686,-12.25,-60.52,-73.22
2883.35,200.01960784313727,291.4901960784314,70.50980392156863,36.85,-41.48,-20.33
2883.4,200.01960784313727,-2.5098039215686274,-52.490196078431374,-116.41,64.88,21.1
2883.45,120.01960784313725,-312.5098039215686,-160.49019607843138,-113.22,75.69,57.5
2883.5,-77.49019607843137,232.0,-98.49019607843137,-24.11,59.35,73.91
2883.55,208.50980392156862,215.0,-67.49019607843137,19.0,43.42,53.3
2883.6,256.5098039215686,117.0,70.50980392156863,32.75,23.02,0.27
2883.65,145.50980392156862,68.0,163.50980392156862,10.32,22.6,-54.6
2883.7,-299.4901960784314,133.0,147.50980392156862,-26.77,46.47,-44.83
2883.75,-54.98039215686274,150.0,163.50980392156862,-89.88,48.57,-41.19
2883.8,-101.98039215686275,19.0,-264.0,-80.22,22.28,-59.39
2883.85,57.01960784313726,166.0,-264.0,-21.91,-11.9,-49.38
2883.9,311.01960784313724,281.0,224.50980392156862,-61.67,-6.65,-43.64
2883.95,-188.49019607843138,133.0,239.50980392156862,-59.15,0.48,-42.31
2884.0,177.50980392156862,199.0,116.50980392156863,-34.82,14.86,-37.66
2884.05,320.5098039215686,215.0,101.50980392156863,-22.5,22.0,-29.89
2884.1,224.50980392156862,-296.5098039215686,-21.49019607843137,6.54,22.88,0.97
2884.15,177.50980392156862,-116.50980392156863,-144.49019607843138,77.48,14.51,64.64
2884.2,161.50980392156862,79.49019607843137,313.01960784313724,139.54,-0.98,99.04
2884.25,177.50980392156862,226.49019607843138,221.01960784313727,198.3,-12.67,144.65
2884.3,-13.490196078431373,-318.01960784313724,82.01960784313725,211.78,29.91,207.12
2884.35,231.01960784313727,242.49019607843138,67.01960784313725,184.09,69.74,206.67
2884.4,200.01960784313727,46.490196078431374,298.01960784313724,153.64,91.44,175.2
2884.45,-236.49019607843138,-165.50980392156862,-52.490196078431374,157.32,86.72,149.02
2884.5,34.509803921568626,-296.5098039215686,163.50980392156862,158.09,78.04,135.41
2884.55,208.50980392156862,-182.50980392156862,163.50980392156862,152.77,69.01,121.2
2884.6,-275.0,-182.50980392156862,116.50980392156863,134.81,49.51,98.24
2884.65,320.5098039215686,-133.50980392156862,-83.49019607843137,113.5,37.89,86.97
2884.7,240.50980392156862,-280.5098039215686,-283.4901960784314,34.85,30.16,69.29
2884.75,177.50980392156862,68.0,313.01960784313724,31.63,1.91,75.1
2884.8,224.50980392156862,-62.0,-298.4901960784314,6.05,-16.84,67.33
2884.85,208.50980392156862,-111.0,282.01960784313724,-8.5,-15.37,67.09
2884.9,-290.0,-143.0,-160.49019607843138,-19.46,-14.0,62.08
2884.95,-100.0,-225.0,-113.49019607843137,-38.6,-14.49,42.13
2885.0,-131.0,-209.0,55.509803921568626,-66.01,-17.5,31.35
2885.05,-259.0,-143.0,39.509803921568626,-87.08,-41.27,29.67
2885.1,-147.0,-176.0,-83.49019607843137,-88.9,-81.59,42.45
2885.15,42.0,19.0,-252.49019607843138,-85.57,-83.72,66.04
2885.2,154.0,84.0,267.01960784313724,-5.88,-68.99,90.89
2885.25,-282.5098039215686,-247.50980392156862,82.01960784313725,68.1,-34.2,105.48
2885.3,-179.0,79.49019607843137,186.52941176470588,20.05,57.53,138.31
2885.35,-315.4901960784314,258.4901960784314,306.03921568627453,-70.94,90.01,123.37
2885.4,295.01960784313724,-2.5098039215686274,63.529411764705884,-107.97,25.99,77.24
2885.45,-77.49019607843137,-263.5098039215686,-190.49019607843138,-143.99,-60.52,25.44
2885.5,-290.0,150.0,-156.0,-44.62,-80.71,-49.8
2885.55,288.5098039215686,-13.0,289.0,-70.38,-57.68,-118.09
2885.6,49.509803921568626,-274.0,-76.50980392156863,-1.68,-33.15,-183.4
2885.65,-140.49019607843138,-78.0,-18.0,-67.62,-75.57,-223.33
2885.7,25.019607843137255,166.0,-279.0,-98.0,-11.83,-79.73
2885.75,-41.96078431372549,307.4901960784314,17.529411764705884,-203.56,65.93,-75.11
2885.8,190.52941176470588,111.49019607843137,52.01960784313726,-272.51,125.15,-111.23
2885.85,-61.490196078431374,95.49019607843137,-221.49019607843138,-192.99,103.17,-112.24
2885.9,58.0,-51.509803921568626,-126.0,-68.11,53.19,-47.91
2885.95,-320.01960784313724,-231.50980392156862,-18.0,87.14,50.77,41.47
2886.0,-130.01960784313727,-2.5098039215686274,178.50980392156862,105.06,91.2,104.85
2886.05,-186.50980392156862,160.49019607843138,24.50980392156863,306.52,14.2,37.93
2886.1,-181.98039215686273,-198.0392156862745,1.5294117647058822,118.85,60.01,142.44
2886.15,197.0392156862745,-236.01960784313727,109.52941176470588,178.88,80.03,191.93
2886.2,-38.98039215686274,-263.5098039215686,252.01960784313727,176.43,70.58,162.46
2886.25,65.50980392156863,-94.0,239.50980392156862,137.02,57.84,133.48
2886.3,304.5098039215686,-160.0,-233.0,174.4,20.88,94.25
2886.35,304.5098039215686,19.0,-156.0,145.14,-13.13,44.65
2886.4,-13.490196078431373,101.0,316.5098039215686,26.73,-27.37,-10.32
2886.45,-220.49019607843138,-78.0,209.50980392156862,-123.72,-50.68,-78.61
2886.5,295.01960784313724,-160.0,132.50980392156862,-148.01,-75.81,-96.53
2886.55,-315.4901960784314,35.0,-283.4901960784314,-188.82,-77.7,-83.68
2886.6,-204.49019607843138,-94.0,-267.4901960784314,-128.17,-53.83,-66.81
2886.65,161.50980392156862,-13.0,-283.4901960784314,-121.76,-36.05,-64.22
2886.7,-163.0,-143.0,-113.49019607843137,-74.86,-31.75,-79.48
2886.75,-227.0,101.0,-252.49019607843138,-135.45,-18.76,-86.24
2886.8,-227.0,150.0,-206.49019607843138,-184.97,-9.24,-90.79
2886.85,193.50980392156862,-263.5098039215686,-221.49019607843138,-167.72,-8.44,-100.34
2886.9,-93.49019607843137,-67.50980392156863,-175.49019607843138,-142.69,-5.92,-132.75
2886.95,168.01960784313727,79.49019607843137,-6.490196078431373,-115.32,8.39,-118.19
2887.0,-6.980392156862745,13.490196078431373,86.50980392156863,-136.99,18.64,-67.13
2887.05,-236.49019607843138,-182.50980392156862,-264.0,-131.0,13.43,-42.91
2887.1,272.5098039215686,199.0,-156.0,-94.43,27.67,-25.76
2887.15,-211.0,101.0,-126.0,-78.08,34.32,-12.04
2887.2,27.0,232.0,-310.0,-163.03,48.67,-42.7
2887.25,2.5098039215686274,183.0,-110.0,-186.72,40.76,-68.49
2887.3,-13.490196078431373,-296.5098039215686,-126.0,33.7,-9.8,-61.32
2887.35,240.50980392156862,-2.5098039215686274,-249.0,24.25,-6.27,-28.8
2887.4,-108.49019607843137,-100.50980392156863,-310.0,-11.86,8.32,1.18
2887.45,-156.49019607843138,281.0,-64.0,-7.1,41.46,-3.74
2887.5,247.01960784313727,281.0,-203.0,-88.9,53.96,-11.44
2887.55,-207.47058823529412,133.0,27.0,-129.99,54.31,-5.35
2887.6,-181.98039215686273,-127.0,-233.0,-148.36,-4.2,1.81
2887.65,-127.47058823529412,68.0,-95.0,-34.26,-7.32,-35.17
2887.7,238.52941176470588,183.0,82.01960784313725,99.78,-3.75,-32.83
2887.75,-54.98039215686274,-165.50980392156862,-144.49019607843138,-71.22,-39.24,28.62
2887.8,263.01960784313724,-263.5098039215686,184.49019607843138,-106.4,-24.15,34.99
2887.85,216.01960784313727,101.0,98.01960784313725,-81.41,-62.86,28.69
2887.9,168.01960784313727,-133.50980392156862,-276.5098039215686,-8.92,-82.67,28.31
2887.95,-101.98039215686275,-149.50980392156862,-49.0,-50.19,-87.78,-13.12
2888.0,-245.98039215686273,-13.0,320.0,-32.65,-77.6,-31.32
2888.05,-165.98039215686273,-29.0,166.0,-31.64,-60.06,-44.41
2888.1,263.01960784313724,-241.0,120.0,-17.71,-47.39,-71.15
2888.15,311.01960784313724,221.50980392156862,258.0,-4.13,-26.18,-66.85
2888.2,-172.49019607843138,-160.0,43.0,49.87,3.98,-63.94
2888.25,-108.49019607843137,166.0,-79.0,66.18,29.7,-50.92
2888.3,-204.49019607843138,-198.50980392156862,-295.0,97.82,47.94,-68.25
2888.35,-188.49019607843138,62.490196078431374,-156.0,199.28,43.67,-59.18
2888.4,-299.4901960784314,-89.01960784313725,86.50980392156863,209.5,17.45,-52.01
2888.45,-229.98039215686273,-176.52941176470588,270.5098039215686,124.33,-63.11,-25.51
2888.5,-86.98039215686275,220.98039215686273,224.50980392156862,280.57,-65.07,121.37
2888.55,-204.49019607843138,-307.52941176470586,292.4901960784314,228.3,134.6,154.38
2888.6,-117.98039215686275,-7.490196078431373,166.0,44.97,138.17,48.68
2888.65,65.50980392156863,172.50980392156862,-218.0,124.28,91.93,-25.62
2888.7,65.50980392156863,281.0,-113.49019607843137,7.83,41.43,-57.22
2888.75,224.50980392156862,3.0,-156.0,102.89,22.32,-74.13
2888.8,-45.490196078431374,183.0,-218.0,-38.15,50.84,-66.18
2888.85,-140.49019607843138,-160.0,-64.0,-37.13,15.0,-60.93
2888.9,-77.49019607843137,188.50980392156862,120.0,-32.86,-53.52,-39.41
2888.95,-93.49019607843137,-192.0,-169.50980392156862,218.18,-216.23,-50.71
2889.0,247.01960784313727,133.0,-169.50980392156862,-130.41,-76.13,-31.32
2889.05,216.5686274509804,-258.0,-138.88235294117646,20.71,-189.42,-44.41
2889.1,-111.47058823529412,79.49019607843137,-83.49019607843137,3.7,-78.54,-71.15
2889.15,184.01960784313727,297.0,-110.0,10.14,-89.64,-66.85
2889.2,-213.98039215686273,95.49019607843137,-110.0,3.11,-65.31,-63.94
2889.25,-181.98039215686273,232.0,270.5098039215686,-4.23,-42.95,-50.92
2889.3,272.5098039215686,9.509803921568627,-141.0,5.45,-27.83,-68.25
2889.35,-133.98039215686273,-18.50980392156863,15.490196078431373,4.68,-38.15,-59.18
2889.4,288.5098039215686,19.0,-218.0,-11.69,-26.36,-52.01
2889.45,193.50980392156862,-192.0,224.50980392156862,-16.1,-32.03,-25.51
2889.5,269.52941176470586,275.4901960784314,-18.0,24.35,-36.89,121.37
2889.55,-252.49019607843138,-192.0,-79.0,31.98,-21.74,154.38
2889.6,-299.4901960784314,30.49019607843137,270.5098039215686,146.71,-52.75,48.68
2889.65,-191.47058823529412,302.98039215686276,-141.0,-202.15,-5.57,-25.62
2889.7,304.5098039215686,150.0,-190.49019607843138,12.99,37.54,-57.22
2889.75,106.0,85.47058823529412,-15.509803921568627,323.32,102.89,-74.13
2889.8,-165.98039215686273,-220.01960784313727,-49.0,175.17,73.91,-66.18
2889.85,186.0,-258.0,-249.0,155.15,54.69,-60.93
2889.9,11.0,199.0,-129.49019607843138,141.43,37.51,-39.41
2889.95,216.01960784313727,-286.01960784313724,-129.49019607843138,96.45,39.75,-50.71
2890.0,-84.0,41.509803921568626,206.01960784313727,77.83,29.46,29.32
2890.05,201.0,-160.0,282.01960784313724,68.45,22.7,30.9
2890.1,-220.49019607843138,144.49019607843138,-236.49019607843138,49.8,10.8,28.87
2890.15,122.0,41.509803921568626,252.01960784313727,47.38,12.97,17.56
2890.2,-250.50980392156862,107.50980392156863,-313.4901960784314,38.95,19.52,17.95
2890.25,304.5098039215686,-45.0,-236.49019607843138,27.78,10.49,13.54
2890.3,90.0,123.50980392156863,-313.4901960784314,23.2,7.2,22.15
2890.35,90.0,221.50980392156862,282.01960784313724,18.47,5.48,37.34
2890.4,42.0,139.50980392156862,313.01960784313724,33.24,-5.18,43.92
2890.45,58.0,188.50980392156862,-283.4901960784314,46.33,0.79,33.17
2890.5,11.0,205.50980392156862,267.01960784313724,36.36,9.93,18.61
2890.55,-68.0,205.50980392156862,-283.4901960784314,14.38,17.77,9.9
2890.6,-68.0,221.50980392156862,-283.4901960784314,15.15,9.58,5.1
2890.65,-4.0,156.50980392156862,-190.49019607843138,3.07,2.05,-1.47
2890.7,-36.0,205.50980392156862,-236.49019607843138,26.91,6.71,-0.21
2890.75,-290.0,-127.0,-313.4901960784314,31.6,12.2,-1.36
2890.8,224.50980392156862,90.50980392156863,-298.4901960784314,48.26,23.82,-8.19
2890.85,242.49019607843138,47.01960784313726,236.01960784313727,44.55,39.85,-21.28
2890.9,-227.0,3.0,267.01960784313724,42.2,52.03,-21.87
2890.95,-13.490196078431373,-241.0,-313.4901960784314,59.28,48.39,-11.02
2891.0,147.49019607843138,-115.98039215686275,252.01960784313727,66.42,41.78,-3.64
2891.05,-52.0,-258.0,-67.49019607843137,81.93,40.45,-17.53
2891.1,65.50980392156863,-225.0,-21.49019607843137,89.24,59.24,-57.61
2891.15,131.49019607843138,68.52941176470588,252.01960784313727,94.6,95.22,-108.85
2891.2,90.0,-317.4901960784314,175.01960784313727,81.12,140.34,-150.53
2891.25,-29.49019607843137,254.50980392156862,252.01960784313727,94.56,175.23,-141.12
2891.3,-11.509803921568627,-197.98039215686273,98.01960784313725,94.98,202.88,-103.74
2891.35,-170.50980392156862,237.50980392156862,-221.49019607843138,117.94,217.44,-65.13
2891.4,288.5098039215686,-84.50980392156863,209.50980392156862,132.08,236.03,-40.11
2891.45,147.49019607843138,-89.49019607843137,316.5098039215686,115.6,255.63,-25.51
2891.5,19.49019607843137,-241.0,150.0,120.74,263.08,-15.99
2891.55,18.50980392156863,-286.01960784313724,-122.50980392156863,107.13,264.03,4.79
2891.6,-20.0,-192.0,77.49019607843137,112.76,241.28,31.11
2891.65,-139.50980392156862,319.5098039215686,184.49019607843138,103.0,206.35,50.95
2891.7,263.01960784313724,-302.01960784313724,34.98039215686274,108.56,138.03,68.59
2891.75,129.50980392156862,-29.0,-58.01960784313726,88.02,89.13,51.58
2891.8,-282.5098039215686,58.509803921568626,-135.01960784313727,78.92,57.14,51.51
2891.85,-61.490196078431374,-165.50980392156862,-119.01960784313725,44.09,46.4,51.79
2891.9,113.50980392156863,166.0,-42.01960784313726,46.54,34.78,2.62
2891.95,81.50980392156863,199.0,-12.019607843137255,18.05,14.58,-27.82
2892.0,49.509803921568626,232.0,-227.01960784313727,10.46,-9.24,-36.68
2892.05,113.50980392156863,166.0,-242.01960784313727,-58.38,-44.0,-56.52
2892.1,-61.490196078431374,281.0,-165.01960784313727,-190.78,-150.22,-96.25
2892.15,-22.980392156862745,30.49019607843137,-312.03921568627453,323.28,-295.93,-159.32
2892.2,-191.47058823529412,-24.019607843137255,153.45098039215685,299.48,190.59,-276.67
2892.25,260.03921568627453,-225.52941176470588,302.96078431372547,320.2,114.85,-272.19
2892.3,15.529411764705882,285.98039215686276,276.4901960784314,-117.53,138.58,-211.4
2892.35,136.01960784313727,-263.5098039215686,-49.0,-77.14,221.18,-126.77
2892.4,200.01960784313727,177.49019607843138,67.01960784313725,-83.68,-295.33,-71.4
2892.45,-260.98039215686276,40.98039215686274,-255.98039215686273,-93.17,-210.53,-14.8
2892.5,-13.490196078431373,215.0,-132.98039215686273,-26.18,-203.25,-22.12
2892.55,-298.5098039215686,41.509803921568626,-147.98039215686273,-75.49,-170.94,-43.26
2892.6,-257.01960784313724,145.01960784313727,-86.98039215686275,-40.81,-151.55,-59.43
2892.65,297.0,-62.0,129.01960784313727,-61.95,-136.61,-56.7
2892.7,-77.49019607843137,-302.01960784313724,-267.4901960784314,-50.12,-108.01,-26.07
2892.75,-181.98039215686273,138.98039215686273,-175.49019607843138,-27.44,-99.47,-20.72
2892.8,-283.4901960784314,-214.50980392156862,-221.49019607843138,-41.68,-95.31,-22.96
2892.85,-100.0,107.50980392156863,-313.4901960784314,-22.33,-101.75,-13.44
2892.9,313.0,123.50980392156863,-298.4901960784314,130.44,-78.37,8.04
2892.95,-236.49019607843138,-286.01960784313724,175.01960784313727,39.89,-5.18,24.88
2893.0,174.52941176470588,122.98039215686275,-240.98039215686273,38.11,9.58,1.18
2893.05,-229.98039215686273,-247.50980392156862,175.01960784313727,12.63,36.53,-4.97
2893.1,49.509803921568626,221.50980392156862,159.01960784313727,-16.73,57.63,-4.09
2893.15,233.0,-56.490196078431374,129.01960784313727,65.76,98.69,3.46
2893.2,81.50980392156863,281.0,67.01960784313725,49.13,156.12,8.64
2893.25,-6.980392156862745,-138.01960784313727,-9.980392156862745,94.11,176.84,9.44
2893.3,-133.98039215686273,128.49019607843138,52.01960784313726,102.16,210.44,5.8
2893.35,113.50980392156863,270.5098039215686,-270.98039215686276,108.35,237.43,11.61
2893.4,-68.0,-160.0,-147.98039215686273,118.08,259.09,8.04
2893.45,-61.490196078431374,-247.50980392156862,67.01960784313725,99.99,289.65,25.79
2893.5,129.50980392156862,133.0,298.01960784313724,117.03,301.2,37.58
2893.55,224.50980392156862,199.0,-98.49019607843137,97.33,307.78,46.33
2893.6,-306.0,84.0,178.50980392156862,92.99,316.91,73.25
2893.65,-131.0,-62.0,-126.0,153.12,317.12,96.56
2893.7,-20.0,-143.0,135.0,138.1,304.42,67.12
2893.75,-259.0,-143.0,-30.50980392156863,141.88,283.28,38.35
2893.8,224.50980392156862,68.0,123.49019607843137,137.09,250.03,43.29
2893.85,-13.490196078431373,52.0,-242.01960784313727,147.13,214.68,61.24
2893.9,-172.49019607843138,232.0,-289.01960784313724,126.62,205.89,126.83
2893.95,-45.490196078431374,297.0,-212.01960784313727,180.07,190.74,86.48
2894.0,-267.4901960784314,-100.50980392156863,-254.52941176470588,-32.27,134.14,-31.32
2894.05,-213.98039215686273,-198.50980392156862,126.98039215686275,-37.69,-66.99,-13.51
2894.1,15.529411764705882,-149.50980392156862,287.96078431372547,-217.03,-250.43,-97.61
2894.15,54.03921568627451,-100.50980392156863,-289.05882352941177,301.72,223.25,-242.65
2894.2,267.54901960784315,-187.01960784313727,-197.05882352941177,-298.83,103.72,-325.11
2894.25,76.54901960784314,-160.52941176470588,110.98039215686275,-293.75,55.6,-266.14
2894.3,-120.96078431372548,-89.01960784313725,-30.50980392156863,-91.77,112.72,-206.78
2894.35,260.03921568627453,-8.019607843137255,236.01960784313727,-154.84,-325.29,-168.94
2894.4,-117.98039215686275,84.0,-255.98039215686273,-72.55,-267.79,-91.87
2894.45,208.50980392156862,-84.50980392156863,232.52941176470588,-51.13,-222.71,-61.35
2894.5,-147.0,-198.50980392156862,-209.98039215686273,-25.06,-201.5,-47.28
2894.55,-131.0,-165.50980392156862,-132.98039215686273,-37.8,-177.42,-43.01
2894.6,288.5098039215686,-247.50980392156862,21.019607843137255,-54.28,-146.3,-26.88
2894.65,224.50980392156862,-296.5098039215686,129.01960784313727,-30.38,-114.8,-16.83
2894.7,272.5098039215686,313.0,236.01960784313727,-23.31,-100.59,-10.74
2894.75,224.50980392156862,313.0,-313.4901960784314,-22.85,-84.56,-6.33
2894.8,65.50980392156863,-312.5098039215686,-221.49019607843138,-23.62,-81.38,-3.78
2894.85,-124.49019607843137,-296.5098039215686,-175.49019607843138,-24.01,-59.71,17.74
2894.9,-299.4901960784314,-18.50980392156863,39.509803921568626,-2.45,4.01,19.8
2894.95,311.01960784313724,-116.50980392156863,21.019607843137255,-10.25,13.5,19.28
2895.0,-108.49019607843137,166.0,-178.98039215686273,21.13,1.11,-10.74
2895.05,97.50980392156863,248.0,313.01960784313724,28.59,21.86,-13.65
2895.1,-61.490196078431374,-231.50980392156862,129.01960784313727,15.32,45.84,1.18
2895.15,-204.49019607843138,-280.5098039215686,144.01960784313727,69.33,105.9,14.1
2895.2,-267.4901960784314,-231.50980392156862,129.01960784313727,68.42,135.61,20.05
2895.25,-77.49019607843137,264.0,52.01960784313726,76.61,161.06,16.16
2895.3,2.5098039215686274,297.0,21.019607843137255,87.11,182.86,20.43
2895.35,18.50980392156863,297.0,36.01960784313726,102.65,201.97,21.31
2895.4,49.509803921568626,313.0,98.01960784313725,94.77,241.07,24.39
2895.45,161.50980392156862,281.0,67.01960784313725,104.78,281.7,36.32
2895.5,224.50980392156862,183.0,175.01960784313727,96.1,300.11,42.94
2895.55,145.50980392156862,199.0,-160.49019607843138,51.86,313.27,76.54
2895.6,-290.0,117.0,116.50980392156863,104.89,311.66,129.0
2895.65,170.0,19.0,-218.0,125.85,303.02,125.36
2895.7,106.0,-45.0,243.0,120.92,288.21,117.0
2895.75,-131.0,-127.0,-215.50980392156862,118.78,257.45,91.62
2895.8,-227.0,-307.0,261.4901960784314,159.03,232.81,69.47
2895.85,-306.0,-13.0,-15.509803921568627,158.16,211.77,78.88
2895.9,193.50980392156862,-111.0,215.49019607843138,179.54,228.19,162.92
2895.95,193.50980392156862,35.0,-196.01960784313727,190.04,190.84,49.83
2896.0,-299.4901960784314,-62.0,-89.01960784313725,38.0,130.68,9.16
2896.05,-54.98039215686274,-247.50980392156862,3.980392156862745,87.84,5.73,6.08
2896.1,-86.98039215686275,-280.5098039215686,-235.0392156862745,-187.95,-155.79,-62.75
2896.15,213.0392156862745,-263.5098039215686,245.45098039215685,-326.3,265.67,-224.1
2896.2,-136.9607843137255,-165.50980392156862,140.94117647058823,-297.57,121.12,-312.13
2896.25,251.54901960784315,-57.01960784313726,302.96078431372547,-261.1,53.57,-250.42
2896.3,-279.96078431372547,318.98039215686276,-46.509803921568626,-150.5,159.23,-167.26
2896.35,-120.96078431372548,40.98039215686274,316.5098039215686,-103.35,264.06,-134.33
2896.4,200.01960784313727,13.490196078431373,-255.98039215686273,-71.29,-286.16,-75.49
2896.45,97.50980392156863,199.0,278.52941176470586,-51.41,-232.16,-32.09
2896.5,-52.0,215.0,-270.98039215686276,-64.78,-193.73,-29.54
2896.55,42.0,19.0,-24.980392156862745,-42.07,-171.82,-30.94
2896.6,-52.0,101.0,21.019607843137255,-79.1,-138.29,-39.83
2896.65,-306.0,52.0,221.01960784313727,-47.56,-127.05,-25.58
2896.7,-306.0,215.0,298.01960784313724,-40.53,-108.75,-17.01
2896.75,272.5098039215686,183.0,-267.4901960784314,-51.9,-89.85,-12.42
2896.8,193.50980392156862,248.0,-206.49019607843138,-44.83,-82.99,-5.95
2896.85,18.50980392156863,-312.5098039215686,-67.49019607843137,-57.29,-83.86,-2.06
2896.9,-124.49019607843137,-296.5098039215686,-21.49019607843137,-12.74,-70.35,3.0
2896.95,-236.49019607843138,-296.5098039215686,-83.49019607843137,-37.83,-4.03,22.08
2897.0,-267.4901960784314,-165.50980392156862,-298.4901960784314,-111.16,33.62,33.73
2897.05,-77.49019607843137,-67.50980392156863,248.52941176470588,29.15,-7.91,-0.49
2897.1,320.5098039215686,-182.50980392156862,221.01960784313727,39.12,2.86,-17.46
2897.15,34.509803921568626,-133.50980392156862,282.01960784313724,66.77,31.0,2.69
2897.2,-236.49019607843138,-100.50980392156863,129.01960784313727,9.37,77.65,12.14
2897.25,-283.4901960784314,-312.5098039215686,-221.49019607843138,63.34,99.25,13.08
2897.3,34.509803921568626,-296.5098039215686,144.01960784313727,64.32,114.33,9.79
2897.35,65.50980392156863,-312.5098039215686,129.01960784313727,59.56,145.41,6.08
2897.4,65.50980392156863,281.0,52.01960784313726,77.62,165.08,13.29
2897.45,113.50980392156863,-296.5098039215686,113.01960784313725,98.48,187.06,21.34
2897.5,161.50980392156862,-296.5098039215686,52.01960784313726,120.32,213.42,23.23
2897.55,240.50980392156862,313.0,21.019607843137255,119.31,259.48,30.13
2897.6,304.5098039215686,232.0,6.019607843137255,115.28,308.34,37.93
2897.65,161.50980392156862,248.0,-283.4901960784314,81.61,321.29,74.09
2897.7,272.5098039215686,166.0,39.509803921568626,129.21,323.91,129.49
2897.75,58.0,35.0,-310.0,190.74,320.73,122.74
2897.8,-20.0,35.0,58.0,153.96,325.91,112.03
2897.85,272.5098039215686,35.0,-215.50980392156862,161.17,308.62,83.19
2897.9,34.509803921568626,68.0,30.49019607843137,128.3,278.2,57.43
2897.95,-77.49019607843137,3.0,169.49019607843138,143.25,229.59,69.78
2898.0,-252.49019607843138,215.0,-227.01960784313727,116.05,215.97,149.41
2898.05,-315.4901960784314,232.0,64.98039215686275,212.97,167.39,127.67
2898.1,200.01960784313727,84.0,280.98039215686276,33.7,68.97,2.69
2898.15,-6.980392156862745,-182.50980392156862,310.98039215686276,-17.08,-44.94,-28.07
2898.2,-229.98039215686273,313.0,-143.0392156862745,-238.91,-211.33,-104.33
2898.25,86.03921568627452,62.490196078431374,2.9411764705882355,302.25,251.11,-233.13
2898.3,-120.96078431372548,242.49019607843138,-166.05882352941177,-320.81,143.48,-313.84
2898.35,-279.96078431372547,-241.52941176470588,7.470588235294118,-226.73,86.68,-249.93
2898.4,54.03921568627451,57.98039215686274,-138.50980392156862,-127.54,217.82,-145.11
2898.45,79.52941176470588,-286.01960784313724,-224.98039215686273,-178.6,-300.93,-122.95
2898.5,-77.49019607843137,232.0,-117.98039215686275,-84.8,-252.04,-70.59
2898.55,42.0,-198.50980392156862,-40.98039215686274,-82.63,-205.94,-30.55
2898.6,106.0,150.0,175.01960784313727,-65.52,-191.14,-29.19
2898.65,90.0,166.0,236.01960784313727,-39.51,-181.16,-30.59
2898.7,11.0,150.0,221.01960784313727,-63.7,-155.09,-36.75
2898.75,-147.0,133.0,190.01960784313727,-44.48,-133.0,-25.27
2898.8,-243.0,232.0,221.01960784313727,-50.57,-106.16,-19.49
2898.85,-259.0,183.0,252.01960784313727,-45.11,-79.45,-20.68
2898.9,320.5098039215686,215.0,-313.4901960784314,-40.25,-67.45,-19.67
2898.95,193.50980392156862,264.0,-221.49019607843138,-55.4,-64.54,-26.07
2899.0,49.509803921568626,281.0,-190.49019607843138,-48.12,-66.61,-32.02
2899.05,2.5098039215686274,313.0,-236.49019607843138,-29.29,-79.59,-33.0
2899.1,-29.49019607843137,-296.5098039215686,-206.49019607843138,5.94,-50.93,-12.46
2899.15,-108.49019607843137,-231.50980392156862,-190.49019607843138,-28.45,14.27,20.57
2899.2,247.01960784313727,-51.509803921568626,201.52941176470588,-1.33,8.91,5.8
2899.25,81.50980392156863,-280.5098039215686,113.01960784313725,45.14,3.52,0.41
2899.3,65.50980392156863,-133.50980392156862,267.01960784313724,58.09,26.48,4.51
2899.35,-124.49019607843137,-165.50980392156862,-313.4901960784314,22.04,74.61,17.11
2899.4,-108.49019607843137,297.0,236.01960784313727,43.78,91.34,18.4
2899.45,34.509803921568626,-247.50980392156862,159.01960784313727,34.57,113.6,13.26
2899.5,81.50980392156863,297.0,144.01960784313727,42.69,129.73,19.0
2899.55,81.50980392156863,-296.5098039215686,175.01960784313727,63.03,152.03,35.59
2899.6,145.50980392156862,-280.5098039215686,144.01960784313727,94.74,166.66,42.55
2899.65,240.50980392156862,-296.5098039215686,113.01960784313725,100.76,191.09,40.38
2899.7,256.5098039215686,297.0,113.01960784313725,125.36,227.03,43.39
2899.75,-306.0,281.0,21.019607843137255,127.71,272.32,47.91
2899.8,-275.0,199.0,175.01960784313727,109.05,290.1,60.12
2899.85,224.50980392156862,248.0,-83.49019607843137,89.63,305.01,99.18
2899.9,-116.0,117.0,147.50980392156862,144.75,296.33,135.76
2899.95,186.0,-13.0,-126.0,163.13,292.73,123.65
2900.0,-36.0,-13.0,181.0,134.32,295.21,109.23
2900.05,288.5098039215686,-45.0,-46.509803921568626,131.94,278.69,79.79
2900.1,145.50980392156862,-29.0,107.49019607843137,118.5,253.11,71.57
2900.15,-13.490196078431373,-192.0,307.4901960784314,105.59,242.61,127.04
2900.2,-77.49019607843137,133.0,-212.01960784313727,262.04,189.79,163.97
2900.25,-61.490196078431374,183.0,-12.019607843137255,92.81,170.05,32.3
2900.3,104.01960784313725,-143.0,49.98039215686274,21.34,40.24,0.38
2900.35,-38.98039215686274,-280.5098039215686,38.470588235294116,-134.12,-137.76,-56.49
2900.4,-238.47058823529412,-13.0,137.45098039215685,-282.38,298.04,-163.06
2900.45,267.54901960784315,166.0,-101.56862745098039,308.3,167.49,-277.37
2900.5,-168.9607843137255,-187.01960784313727,-169.54901960784315,-296.31,97.18,322.44
2900.55,-56.96078431372549,236.98039215686273,-104.01960784313725,-70.8,144.5,-195.96
2900.6,-215.9607843137255,8.980392156862745,73.0,-143.64,309.31,-131.04
2900.65,-101.98039215686275,-18.50980392156863,-24.980392156862745,-126.7,-260.44,-84.31
2900.7,-29.49019607843137,133.0,278.52941176470586,-64.01,-216.9,-34.3
2900.75,-20.0,297.0,-286.98039215686276,-53.16,-193.13,-25.69
2900.8,74.0,166.0,-9.980392156862745,-50.57,-175.95,-36.71
2900.85,42.0,133.0,129.01960784313727,-54.14,-156.0,-37.83
2900.9,-227.0,183.0,236.01960784313727,-56.87,-140.67,-25.37
2900.95,320.5098039215686,232.0,252.01960784313727,-36.15,-120.82,-14.87
2901.0,-290.0,248.0,-313.4901960784314,-30.55,-95.94,-9.24
2901.05,272.5098039215686,232.0,-267.4901960784314,-31.01,-84.39,-6.37
2901.1,177.50980392156862,248.0,-206.49019607843138,-24.85,-78.02,-6.72
2901.15,-29.49019607843137,297.0,-236.49019607843138,-36.92,-74.55,-5.63
2901.2,-108.49019607843137,281.0,-236.49019607843138,55.5,-58.03,13.08
2901.25,-156.49019607843138,-133.50980392156862,-67.49019607843137,-12.91,5.1,7.48
2901.3,-220.49019607843138,133.0,159.01960784313727,-7.07,5.31,6.61
2901.35,97.50980392156863,297.0,52.01960784313726,29.5,-6.93,-8.01
2901.4,113.50980392156863,-214.50980392156862,267.01960784313724,13.26,10.98,-18.48
2901.45,-13.490196078431373,313.0,-283.4901960784314,17.42,18.12,-12.0
2901.5,-77.49019607843137,313.0,-313.4901960784314,-26.18,52.24,4.16
2901.55,-204.49019607843138,248.0,298.01960784313724,30.23,68.24,-0.03
2901.6,-108.49019607843137,166.0,-206.49019607843138,66.56,81.19,-8.78
2901.65,34.509803921568626,248.0,190.01960784313727,37.51,114.54,-10.78
2901.7,97.50980392156863,133.0,129.01960784313727,19.98,144.19,6.57
2901.75,145.50980392156862,215.0,5.019607843137255,78.11,181.39,21.73
2901.8,177.50980392156862,-296.5098039215686,-132.98039215686273,71.6,228.85,31.21
2901.85,161.50980392156862,-198.50980392156862,-178.98039215686273,82.45,266.27,58.06
2901.9,177.50980392156862,-263.5098039215686,-24.980392156862745,99.04,291.68,76.57
2901.95,129.50980392156862,-231.50980392156862,298.01960784313724,75.42,302.81,101.14
2902.0,97.50980392156863,-312.5098039215686,101.50980392156863,82.1,293.74,162.6
2902.05,-147.0,68.0,-218.0,142.37,264.52,172.51
2902.1,217.0,-143.0,43.0,150.07,251.01,149.69
2902.15,106.0,-274.0,320.0,165.54,237.95,134.85
2902.2,11.0,-290.0,-199.50980392156862,183.46,221.61,102.3
2902.25,-68.0,319.5098039215686,0.49019607843137253,174.33,203.97,55.92
2902.3,-163.0,-192.0,-30.50980392156863,93.65,249.33,101.11
2902.35,129.50980392156862,-29.0,184.49019607843138,232.15,240.44,144.89
2902.4,34.509803921568626,19.0,-104.01960784313725,105.38,223.32,8.46
2902.45,-299.4901960784314,286.5098039215686,-135.01960784313727,37.2,138.8,-9.76
2902.5,104.01960784313725,313.0,34.98039215686274,-41.72,-73.54,-5.04
2902.55,110.52941176470588,84.0,-50.03921568627451,-174.54,-263.55,-70.24
2902.6,-279.96078431372547,117.0,-182.05882352941177,311.7,221.67,-218.92
2902.65,-247.9607843137255,117.0,306.45098039215685,-259.73,77.16,-317.48
2902.7,38.03921568627451,-8.019607843137255,315.47058823529414,-250.7,11.5,-250.04
2902.75,22.03921568627451,171.98039215686273,246.49019607843138,-105.59,226.36,-96.49
2902.8,22.03921568627451,40.98039215686274,-209.98039215686273,-194.7,-260.75,-58.2
2902.85,-299.4901960784314,183.0,140.52941176470588,-169.47,-214.48,-36.22
2902.9,-36.0,199.0,278.52941176470586,-86.38,-197.82,-37.03
2902.95,58.0,166.0,67.01960784313725,-59.57,-186.55,-48.02
2903.0,74.0,84.0,52.01960784313726,-73.74,-161.25,-50.57
2903.05,-68.0,101.0,175.01960784313727,-63.84,-147.0,-45.22
2903.1,-290.0,232.0,221.01960784313727,-42.56,-130.52,-36.05
2903.15,288.5098039215686,264.0,267.01960784313724,-50.01,-103.5,-18.9
2903.2,-306.0,232.0,282.01960784313724,-36.05,-83.83,-6.19
2903.25,320.5098039215686,297.0,-313.4901960784314,-36.43,-68.5,-12.49
2903.3,193.50980392156862,-312.5098039215686,-283.4901960784314,-53.48,-67.27,-12.39
2903.35,18.50980392156863,313.0,-190.49019607843138,-39.93,-77.67,-14.1
2903.4,-13.490196078431373,-263.5098039215686,-52.490196078431374,117.35,-63.32,3.77
2903.45,-77.49019607843137,-165.50980392156862,-6.490196078431373,-75.56,38.59,49.06
2903.5,231.01960784313727,133.0,32.529411764705884,4.09,-2.63,16.76
2903.55,-290.0,-78.0,236.01960784313727,37.65,-7.91,-5.81
2903.6,288.5098039215686,144.49019607843138,282.01960784313724,4.47,17.14,-28.21
2903.65,2.5098039215686274,264.0,-283.4901960784314,0.0,14.58,-26.39
2903.7,-140.49019607843138,232.0,-160.49019607843138,35.52,14.83,-10.25
2903.75,-283.4901960784314,-198.50980392156862,-175.49019607843138,10.6,49.72,4.09
2903.8,-108.49019607843137,281.0,-267.4901960784314,9.41,87.94,0.73
2903.85,65.50980392156863,117.0,144.01960784313727,29.15,128.3,11.86
2903.9,2.5098039215686274,183.0,-24.980392156862745,53.12,153.25,5.94
2903.95,81.50980392156863,215.0,21.019607843137255,65.51,169.67,-1.89
2904.0,97.50980392156863,264.0,21.019607843137255,88.72,204.32,5.21
2904.05,161.50980392156862,313.0,36.01960784313726,80.98,244.04,17.21
2904.1,240.50980392156862,248.0,98.01960784313725,81.72,275.58,34.43
2904.15,224.50980392156862,313.0,221.01960784313727,62.89,294.13,69.19
2904.2,240.50980392156862,313.0,-206.49019607843138,40.56,299.94,137.54
2904.25,-20.0,117.0,55.509803921568626,122.88,278.62,170.44
2904.3,313.0,19.0,-310.0,127.25,289.12,171.25
2904.35,-20.0,-29.0,-3.0,160.89,299.06,169.29
2904.4,-147.0,-45.0,135.0,158.19,324.44,119.45
2904.45,177.50980392156862,-258.0,289.0,132.5,-326.76,63.73
2904.5,-45.490196078431374,-94.0,-215.50980392156862,113.5,314.43,98.66
2904.55,311.01960784313724,-29.0,153.49019607843138,198.06,254.54,184.3
2904.6,-299.4901960784314,183.0,-104.01960784313725,151.58,184.3,101.11
2904.65,-133.98039215686273,84.0,203.98039215686273,25.68,12.45,76.26
2904.7,-292.98039215686276,-165.50980392156862,-269.52941176470586,9.65,-117.5,19.0
2904.75,-9.96078431372549,-198.50980392156862,168.45098039215685,-222.04,-234.43,-90.16
2904.8,22.03921568627451,232.0,-182.05882352941177,283.24,319.67,-308.84
2904.85,213.0392156862745,248.0,-108.54901960784314,-303.8,217.86,219.47
2904.9,-311.96078431372547,40.98039215686274,268.47058823529414,-196.56,96.27,273.44
2904.95,-120.96078431372548,285.98039215686276,230.49019607843138,-0.24,139.53,-124.42
2905.0,54.03921568627451,-57.01960784313726,-6.490196078431373,-122.85,299.48,-77.38
2905.05,152.01960784313727,199.0,124.52941176470588,-113.5,-262.12,-55.86
2905.1,97.50980392156863,117.0,155.52941176470588,-66.15,-225.47,-28.45
2905.15,-179.0,199.0,-255.98039215686273,-91.21,-196.21,-32.76
2905.2,-211.0,101.0,52.01960784313726,-46.27,-176.12,-28.77
2905.25,-147.0,281.0,-55.98039215686274,-65.34,-146.41,-21.28
2905.3,-306.0,166.0,21.019607843137255,-44.97,-124.32,-12.7
2905.35,272.5098039215686,313.0,82.01960784313725,-38.78,-104.13,-3.6
2905.4,256.5098039215686,264.0,282.01960784313724,-26.98,-81.59,-1.78
2905.45,288.5098039215686,215.0,267.01960784313724,-30.62,-53.59,-8.57
2905.5,177.50980392156862,166.0,-283.4901960784314,-70.1,-47.04,-20.51
2905.55,34.509803921568626,150.0,-175.49019607843138,-16.03,-52.61,-22.96
2905.6,18.50980392156863,313.0,-83.49019607843137,29.99,-51.73,7.55
2905.65,-93.49019607843137,-84.50980392156863,313.01960784313724,-115.85,16.72,13.26
2905.7,-220.49019607843138,68.0,232.52941176470588,-7.1,-9.7,-1.29
2905.75,208.50980392156862,-312.5098039215686,267.01960784313724,-13.44,-2.8,-2.55
2905.8,81.50980392156863,-296.5098039215686,-160.49019607843138,46.16,11.75,-9.27
2905.85,49.509803921568626,-100.50980392156863,267.01960784313724,28.2,28.55,-16.27
2905.9,-172.49019607843138,-312.5098039215686,175.01960784313727,-15.26,43.04,16.76
2905.95,-220.49019607843138,-165.50980392156862,252.01960784313727,46.12,96.03,25.79
2906.0,-108.49019607843137,-263.5098039215686,252.01960784313727,34.12,127.49,31.32
2906.05,49.509803921568626,-312.5098039215686,144.01960784313727,68.31,143.38,31.74
2906.1,65.50980392156863,-263.5098039215686,129.01960784313727,67.82,165.71,33.1
2906.15,113.50980392156863,-263.5098039215686,190.01960784313727,73.63,179.01,39.3
2906.2,193.50980392156862,-214.50980392156862,159.01960784313727,104.33,201.8,52.0
2906.25,272.5098039215686,-214.50980392156862,175.01960784313727,108.88,240.54,68.52
2906.3,-259.0,-312.5098039215686,98.01960784313725,109.96,277.64,77.41
2906.35,320.5098039215686,232.0,313.01960784313724,86.9,284.33,92.46
2906.4,-227.0,166.0,70.50980392156863,101.84,276.59,133.83
2906.45,217.0,-62.0,193.50980392156862,153.64,266.9,150.07
2906.5,281.0,-127.0,-156.0,168.52,263.4,130.44
2906.55,-20.0,-94.0,181.0,184.3,260.0,112.17
2906.6,-211.0,3.0,-230.50980392156862,167.4,253.46,73.49
2906.65,240.50980392156862,-94.0,0.49019607843137253,146.26,252.02,68.91
2906.7,49.509803921568626,19.0,77.49019607843137,107.86,270.92,127.95
2906.75,34.509803921568626,-62.0,261.4901960784314,229.73,242.12,169.53
2906.8,-124.49019607843137,101.0,-104.01960784313725,92.71,208.59,30.27
2906.85,25.019607843137255,-29.0,95.98039215686275,22.18,51.54,19.56
2906.9,285.52941176470586,-182.50980392156862,284.47058823529414,-136.39,-225.86,-37.13
2906.95,86.03921568627452,-111.0,122.45098039215686,-252.56,254.82,-142.59
2907.0,102.03921568627452,-149.50980392156862,-182.05882352941177,-246.22,152.06,-243.25
2907.05,-175.47058823529412,-18.50980392156863,-262.54901960784315,-267.61,158.01,-291.02
2907.1,-286.47058823529414,-106.01960784313725,80.98039215686275,-249.27,165.04,-229.35
2907.15,-270.47058823529414,258.4901960784314,46.490196078431374,-60.44,264.93,-103.74
2907.2,222.52941176470588,-318.01960784313724,-267.4901960784314,-154.28,-264.36,-35.77
2907.25,-77.49019607843137,150.0,82.01960784313725,-42.8,-245.63,7.24
2907.3,-100.0,-280.5098039215686,36.01960784313726,-26.88,-210.46,21.8
2907.35,-36.0,215.0,52.01960784313726,-77.56,-187.15,8.64
2907.4,-116.0,-29.0,129.01960784313727,-95.09,-155.26,-24.22
2907.45,-147.0,-13.0,144.01960784313727,-89.25,-142.38,-33.11
2907.5,320.5098039215686,101.0,144.01960784313727,-90.09,-124.29,-34.54
2907.55,320.5098039215686,133.0,221.01960784313727,-51.66,-103.43,-29.64
2907.6,-290.0,297.0,221.01960784313727,-51.13,-87.19,-27.72
2907.65,288.5098039215686,264.0,298.01960784313724,-58.66,-64.33,-26.25
2907.7,240.50980392156862,313.0,267.01960784313724,-51.8,-53.03,-20.72
2907.75,113.50980392156863,-280.5098039215686,-283.4901960784314,-60.09,-49.98,-16.69
2907.8,65.50980392156863,-231.50980392156862,-221.49019607843138,-10.92,-43.33,-9.34
2907.85,2.5098039215686274,-100.50980392156863,-83.49019607843137,-5.95,-43.58,-8.54
2907.9,2.5098039215686274,-280.5098039215686,-67.49019607843137,-62.26,3.45,31.21
2907.95,295.01960784313724,46.490196078431374,-236.49019607843138,-30.76,8.11,31.49
2908.0,311.01960784313724,46.490196078431374,36.01960784313726,36.81,-2.17,1.57
2908.05,193.50980392156862,-67.50980392156863,-175.49019607843138,63.55,4.33,-4.86
2908.1,49.509803921568626,95.49019607843137,-283.4901960784314,63.59,16.54,-0.87
2908.15,-172.49019607843138,-165.50980392156862,-252.49019607843138,30.62,62.71,13.33
2908.2,-172.49019607843138,-231.50980392156862,267.01960784313724,67.68,74.96,18.44
2908.25,18.50980392156863,-198.50980392156862,313.01960784313724,57.25,93.68,5.77
2908.3,113.50980392156863,-231.50980392156862,313.01960784313724,18.12,109.01,2.97
2908.35,193.50980392156862,313.0,-313.4901960784314,42.31,116.26,11.75
2908.4,208.50980392156862,-231.50980392156862,267.01960784313724,70.31,137.43,24.28
2908.45,240.50980392156862,-263.5098039215686,221.01960784313727,78.36,159.97,33.17
2908.5,320.5098039215686,-296.5098039215686,98.01960784313725,95.89,186.36,39.09
2908.55,-227.0,-312.5098039215686,52.01960784313726,126.13,215.45,43.32
2908.6,-147.0,313.0,-40.98039215686274,108.98,257.97,47.17
2908.65,-259.0,297.0,159.01960784313727,72.86,278.62,72.62
2908.7,-227.0,281.0,-144.49019607843138,94.81,283.63,118.61
2908.75,27.0,133.0,86.50980392156863,158.37,279.74,129.74
2908.8,42.0,-13.0,-249.0,132.36,282.02,114.62
2908.85,-147.0,-62.0,289.0,121.16,272.11,98.2
2908.9,-227.0,-111.0,-107.50980392156863,115.95,264.31,86.13
2908.95,-290.0,-62.0,46.490196078431374,107.48,262.42,102.19
2909.0,49.509803921568626,-62.0,-319.01960784313724,82.14,266.58,147.76
2909.05,34.509803921568626,-45.0,307.4901960784314,202.75,255.38,192.0
2909.1,-267.4901960784314,3.0,-12.019607843137255,75.56,219.82,69.57
2909.15,88.01960784313725,-127.0,203.98039215686273,29.43,79.16,32.33
2909.2,-101.98039215686275,-45.0,192.47058823529412,-57.71,-104.55,-17.64
2909.25,-143.47058823529412,319.5098039215686,-169.54901960784315,-207.48,-296.1,-130.41
2909.3,22.03921568627451,-78.0,-305.05882352941177,-307.79,236.62,-266.21
2909.35,86.03921568627452,-263.5098039215686,-185.54901960784315,-278.14,186.57,292.27
2909.4,292.03921568627453,-24.019607843137255,187.98039215686273,-316.78,154.79,-313.28
2909.45,-48.470588235294116,-138.01960784313727,138.49019607843138,-118.33,216.88,-251.58
2909.5,-308.98039215686276,-220.01960784313727,-83.49019607843137,-42.98,323.31,-163.9
2909.55,152.01960784313727,-18.50980392156863,-163.98039215686273,-86.52,-231.74,-28.66
2909.6,-211.0,-296.5098039215686,247.52941176470588,-37.45,-179.62,-3.67
2909.65,-4.0,166.0,-147.98039215686273,-38.64,-173.01,-32.97
2909.7,11.0,35.0,113.01960784313725,-64.33,-160.06,-59.6
2909.75,27.0,68.0,113.01960784313725,-54.74,-130.48,-54.49
2909.8,-275.0,215.0,98.01960784313725,-58.27,-115.01,-34.51
2909.85,304.5098039215686,215.0,267.01960784313724,-36.15,-96.95,-25.55
2909.9,-275.0,248.0,298.01960784313724,-39.27,-76.65,-19.11
2909.95,-290.0,297.0,-283.4901960784314,-36.43,-65.21,-9.48
2910.0,288.5098039215686,-296.5098039215686,-221.49019607843138,-15.12,-61.36,-6.89
2910.05,145.50980392156862,-247.50980392156862,-252.49019607843138,2.09,-64.82,-8.01
2910.1,97.50980392156863,-231.50980392156862,-267.4901960784314,27.29,-67.41,-8.26
2910.15,18.50980392156863,281.0,-175.49019607843138,90.96,-67.06,-19.28
2910.2,-77.49019607843137,297.0,-67.49019607843137,-38.36,-9.66,-2.55
2910.25,216.01960784313727,-45.0,190.01960784313727,18.23,16.19,22.53
2910.3,-156.49019607843138,-84.50980392156863,140.52941176470588,55.71,5.8,6.05
2910.35,-13.490196078431373,199.0,190.01960784313727,-9.17,33.03,-0.28
2910.4,-61.490196078431374,297.0,98.01960784313725,30.13,61.06,28.87
2910.45,-252.49019607843138,313.0,190.01960784313727,111.71,76.11,39.09
2910.5,-61.490196078431374,-296.5098039215686,236.01960784313727,79.2,103.27,27.85
2910.55,65.50980392156863,150.0,175.01960784313727,75.7,112.55,9.97
2910.6,208.50980392156862,68.0,144.01960784313727,65.83,123.54,-4.37
2910.65,272.5098039215686,-45.0,159.01960784313727,87.74,129.0,-9.06
2910.7,-290.0,3.0,159.01960784313727,61.03,138.97,-7.42
2910.75,-211.0,-62.0,190.01960784313727,52.56,156.26,-3.71
2910.8,-227.0,-13.0,144.01960784313727,75.8,180.66,-2.13
2910.85,-163.0,3.0,67.01960784313725,56.2,229.1,10.56
2910.9,-52.0,-78.0,98.01960784313725,91.24,257.83,16.97
2910.95,-195.0,68.0,298.01960784313724,74.96,279.5,44.06
2911.0,-243.0,52.0,-236.49019607843138,99.43,287.13,108.21
2911.05,42.0,3.0,178.50980392156862,166.56,277.85,125.54
2911.1,138.0,-45.0,-172.0,133.38,284.85,102.82
2911.15,-131.0,-78.0,289.0,150.21,279.08,97.89
2911.2,224.50980392156862,3.0,-76.50980392156863,129.56,273.79,87.84
2911.25,18.50980392156863,-13.0,123.49019607843137,104.54,244.95,90.19
2911.3,-172.49019607843138,-94.0,215.49019607843138,142.86,214.15,134.85
2911.35,247.01960784313727,35.0,-27.019607843137255,164.46,163.09,50.43
2911.4,25.019607843137255,-111.0,249.98039215686273,-38.6,71.81,-24.92
2911.45,79.52941176470588,-94.0,133.9607843137255,-148.15,-66.05,-64.15
2911.5,-302.47058823529414,172.50980392156862,276.45098039215685,-261.69,267.91,-168.63
2911.55,22.03921568627451,248.0,187.94117647058823,-303.97,106.28,-291.13
2911.6,6.03921568627451,-220.01960784313727,230.45098039215685,-187.74,77.58,-279.16
2911.65,-72.96078431372548,-209.52941176470588,276.4901960784314,-86.87,188.77,-141.89
2911.7,-238.47058823529412,-204.01960784313727,-221.49019607843138,-174.89,-308.49,-89.95
2911.75,200.01960784313727,183.0,-59.470588235294116,-121.73,-234.05,-29.96
2911.8,256.5098039215686,68.0,1.5294117647058822,2.58,-171.61,30.55
2911.85,217.0,-62.0,263.52941176470586,-36.22,-128.73,29.67
2911.9,217.0,-307.0,-9.980392156862745,-28.42,-128.59,18.37
2911.95,201.0,-78.0,236.01960784313727,-40.25,-115.47,11.44
2912.0,42.0,-78.0,313.01960784313724,-54.42,-101.15,13.71
2912.05,-68.0,-45.0,-313.4901960784314,-52.22,-86.77,15.01
2912.1,-147.0,-29.0,-283.4901960784314,-55.19,-74.34,9.55
2912.15,-163.0,-29.0,-283.4901960784314,-43.78,-73.61,-3.18
2912.2,-275.0,-29.0,-252.49019607843138,-13.47,-76.27,-10.74
2912.25,272.5098039215686,19.0,298.01960784313724,-21.24,-78.65,-12.7
2912.3,193.50980392156862,3.0,313.01960784313724,-58.06,-70.28,-5.95
2912.35,145.50980392156862,19.0,236.01960784313727,-83.47,-63.77,-3.74
2912.4,145.50980392156862,52.0,313.01960784313724,-27.51,-53.06,-11.02
2912.45,34.509803921568626,133.0,-236.49019607843138,-80.64,-1.33,1.95
2912.5,2.5098039215686274,215.0,-113.49019607843137,-13.54,16.26,20.85
2912.55,34.509803921568626,-182.50980392156862,94.52941176470588,39.89,-4.27,1.08
2912.6,208.50980392156862,117.0,252.01960784313727,55.64,5.8,-14.7
2912.65,81.50980392156863,232.0,267.01960784313724,90.01,15.42,-11.62
2912.7,-204.49019607843138,281.0,267.01960784313724,66.98,37.33,7.17
2912.75,-172.49019607843138,101.0,-221.49019607843138,63.06,58.75,9.34
2912.8,49.509803921568626,-62.0,267.01960784313724,78.32,72.23,-5.7
2912.85,193.50980392156862,-127.0,190.01960784313727,48.99,80.8,-19.04
2912.9,224.50980392156862,-225.0,175.01960784313727,43.01,99.88,-28.38
2912.95,320.5098039215686,-192.0,52.01960784313726,63.45,129.35,-30.8
2913.0,-306.0,-209.0,-24.980392156862745,78.32,151.15,-36.26
2913.05,-275.0,-209.0,-40.98039215686274,104.08,176.91,-44.34
2913.1,-306.0,-192.0,-40.98039215686274,89.8,209.08,-47.11
2913.15,320.5098039215686,-274.0,-55.98039215686274,108.39,244.6,-51.76
2913.2,320.5098039215686,-127.0,82.01960784313725,63.76,272.43,-41.12
2913.25,320.5098039215686,-111.0,-252.49019607843138,77.55,284.08,-13.47
2913.3,-116.0,-62.0,55.509803921568626,114.3,295.14,38.91
2913.35,186.0,-127.0,147.50980392156862,129.98,298.96,48.64
2913.4,-20.0,-111.0,-126.0,149.16,302.88,55.29
2913.45,-227.0,84.0,181.0,148.67,297.0,52.67
2913.5,288.5098039215686,248.0,-122.50980392156863,100.23,284.75,42.48
2913.55,-45.490196078431374,215.0,123.49019607843137,101.81,267.95,65.44
2913.6,-283.4901960784314,297.0,292.4901960784314,114.9,264.9,185.6
2913.65,-172.49019607843138,281.0,110.98039215686275,157.77,214.68,108.81
2913.7,-149.98039215686273,19.0,295.98039215686276,-23.73,110.17,45.95
2913.75,301.52941176470586,-133.50980392156862,-223.52941176470588,-33.14,-68.11,17.0
2913.8,260.03921568627453,-143.0,-262.54901960784315,-231.91,-205.14,-139.54
2913.85,165.0392156862745,68.0,-93.54901960784314,-302.01,-306.74,-271.7
2913.9,292.03921568627453,-35.509803921568626,72.96078431372548,-289.03,282.75,302.67
2913.95,-127.47058823529412,-318.01960784313724,-284.52941176470586,-178.36,199.9,317.4
2914.0,-54.98039215686274,-155.01960784313727,15.490196078431373,-181.93,217.19,-220.01
2914.05,-236.49019607843138,-247.50980392156862,-33.0,-10.18,307.7,-122.25
2914.1,295.01960784313724,-18.50980392156863,36.01960784313726,-131.88,-244.2,-64.47
2914.15,-275.0,-241.0,-190.49019607843138,-90.61,-207.48,-52.04
2914.2,-100.0,35.0,-252.49019607843138,-86.8,-195.13,-64.5
2914.25,27.0,19.0,236.01960784313727,-49.35,-189.25,-73.64
2914.3,-4.0,281.0,113.01960784313725,-45.85,-151.94,-56.42
2914.35,-116.0,313.0,52.01960784313726,-59.71,-126.18,-34.82
2914.4,-163.0,-296.5098039215686,175.01960784313727,-34.05,-116.87,-25.51
2914.45,-195.0,-263.5098039215686,267.01960784313724,-40.67,-100.24,-21.03
2914.5,-163.0,248.0,313.01960784313724,-31.78,-90.09,-19.28
2914.55,-227.0,264.0,298.01960784313724,-33.39,-85.26,-21.56
2914.6,272.5098039215686,281.0,-298.4901960784314,-25.48,-82.11,-22.36
2914.65,145.50980392156862,313.0,-298.4901960784314,-28.45,-81.45,-14.84
2914.7,34.509803921568626,-312.5098039215686,-190.49019607843138,-18.37,-62.09,-8.54
2914.75,-29.49019607843137,-296.5098039215686,-160.49019607843138,-7.17,-36.26,0.0
2914.8,-124.49019607843137,-231.50980392156862,221.01960784313727,-48.19,12.87,22.57
2914.85,57.01960784313726,232.0,-55.98039215686274,-44.87,14.97,16.34
2914.9,-13.490196078431373,-312.5098039215686,206.01960784313727,21.62,-5.67,-6.72
2914.95,208.50980392156862,-182.50980392156862,-298.4901960784314,54.07,-2.45,-16.59
2915.0,34.509803921568626,-84.50980392156863,298.01960784313724,29.22,12.06,-3.36
2915.05,-77.49019607843137,-198.50980392156862,-252.49019607843138,31.35,57.07,19.7
2915.1,-204.49019607843138,-116.50980392156863,-236.49019607843138,29.5,71.95,36.29
2915.15,34.509803921568626,-198.50980392156862,267.01960784313724,41.89,86.86,31.32
2915.2,177.50980392156862,-280.5098039215686,267.01960784313724,43.25,96.97,28.06
2915.25,224.50980392156862,313.0,236.01960784313727,53.89,109.89,31.42
2915.3,224.50980392156862,-296.5098039215686,236.01960784313727,59.56,121.61,40.35
2915.35,288.5098039215686,-280.5098039215686,206.01960784313727,75.42,136.0,44.97
2915.4,-290.0,281.0,236.01960784313727,97.29,157.56,47.49
2915.45,-211.0,313.0,129.01960784313727,111.26,183.14,54.28
2915.5,-163.0,199.0,52.01960784313726,137.79,225.11,55.43
2915.55,-68.0,166.0,144.01960784313727,108.53,243.41,62.43
2915.6,-211.0,150.0,-236.49019607843138,101.0,250.13,84.59
2915.65,-20.0,150.0,-21.49019607843137,130.68,260.6,116.09
2915.7,297.0,-143.0,86.50980392156863,164.11,274.91,122.7
2915.75,138.0,-192.0,316.5098039215686,161.55,282.79,107.34
2915.8,-36.0,-62.0,181.0,153.22,286.5,99.88
2915.85,-227.0,-78.0,-184.50980392156862,144.65,283.98,95.19
2915.9,193.50980392156862,-62.0,-30.50980392156863,129.49,267.46,92.15
2915.95,97.50980392156863,-62.0,200.49019607843138,139.22,242.08,100.51
2916.0,-45.490196078431374,-45.0,307.4901960784314,192.04,190.14,144.89
2916.05,-204.49019607843138,-45.0,49.98039215686274,127.64,138.38,58.55
2916.1,-38.98039215686274,-192.0,110.98039215686275,43.88,35.48,42.34
2916.15,9.019607843137255,199.0,-223.52941176470588,-23.52,-79.59,-9.8
2916.2,206.52941176470588,215.0,-158.0392156862745,-142.73,-214.17,-78.82
2916.25,-175.47058823529412,-296.5098039215686,-246.54901960784315,-239.64,278.23,-172.09
2916.3,292.03921568627453,-18.50980392156863,14.450980392156863,-321.05,215.27,-243.63
2916.35,-191.47058823529412,-57.01960784313726,130.47058823529412,-281.36,120.42,-252.66
2916.4,-159.47058823529412,302.98039215686276,-273.01960784313724,-159.46,186.36,-176.08
2916.45,110.52941176470588,-133.50980392156862,144.01960784313727,-60.86,315.02,-84.66
2916.5,-156.49019607843138,-214.50980392156862,-117.98039215686275,-50.68,-245.07,-10.74
2916.55,-20.0,199.0,-132.98039215686273,-77.0,-197.12,0.06
2916.6,58.0,-45.0,67.01960784313725,-94.85,-182.67,-17.78
2916.65,58.0,-209.0,252.01960784313727,-78.12,-171.4,-26.14
2916.7,-52.0,19.0,236.01960784313727,-76.68,-143.82,-20.47
2916.75,-163.0,52.0,206.01960784313727,-58.27,-129.54,-15.22
2916.8,-211.0,117.0,267.01960784313724,-53.09,-117.71,-16.24
2916.85,-211.0,68.0,282.01960784313724,-43.08,-103.18,-18.37
2916.9,-259.0,68.0,282.01960784313724,-43.47,-89.92,-17.95
2916.95,288.5098039215686,84.0,313.01960784313724,-35.63,-82.39,-17.36
2917.0,177.50980392156862,150.0,282.01960784313724,-33.46,-73.08,-17.88
2917.05,161.50980392156862,166.0,282.01960784313724,-36.89,-53.27,-12.0
2917.1,81.50980392156863,183.0,282.01960784313724,-16.06,-37.07,-4.41
2917.15,2.5098039215686274,232.0,298.01960784313724,-57.12,-4.34,27.61
2917.2,-204.49019607843138,248.0,252.01960784313727,13.96,40.03,50.99
2917.25,-6.980392156862745,30.49019607843137,67.01960784313725,-40.46,23.19,16.34
2917.3,161.50980392156862,19.0,-67.49019607843137,18.23,-4.69,-13.3
2917.35,-259.0,-35.509803921568626,282.01960784313724,26.24,-18.13,-31.74
2917.4,145.50980392156862,-214.50980392156862,-252.49019607843138,64.88,-4.97,-18.37
2917.45,-77.49019607843137,-116.50980392156863,206.01960784313727,70.48,23.3,6.47
2917.5,-108.49019607843137,-198.50980392156862,-298.4901960784314,29.67,63.02,13.96
2917.55,-13.490196078431373,232.0,175.01960784313727,22.95,80.77,10.25
2917.6,161.50980392156862,199.0,129.01960784313727,37.27,94.77,8.71
2917.65,240.50980392156862,248.0,144.01960784313727,49.38,111.46,12.07
2917.7,256.5098039215686,232.0,98.01960784313725,77.8,130.75,22.74
2917.75,320.5098039215686,313.0,82.01960784313725,69.29,151.22,25.09
2917.8,-275.0,183.0,67.01960784313725,94.25,169.63,25.75
2917.85,-227.0,199.0,82.01960784313725,103.52,192.17,25.05
2917.9,-211.0,101.0,144.01960784313727,125.57,213.87,23.76
2917.95,-163.0,101.0,175.01960784313727,124.8,245.34,23.62
2918.0,-116.0,52.0,313.01960784313724,110.1,258.25,30.79
2918.05,-179.0,84.0,-52.490196078431374,113.81,268.23,59.77
2918.1,-4.0,3.0,193.50980392156862,109.75,280.55,88.23
2918.15,170.0,-176.0,-172.0,124.7,291.22,100.65
2918.2,-52.0,-78.0,196.0,113.67,297.59,88.65
2918.25,304.5098039215686,-127.0,-107.50980392156863,117.8,276.8,83.22
2918.3,272.5098039215686,3.0,184.49019607843138,124.14,249.12,80.49
2918.35,177.50980392156862,-29.0,292.4901960784314,139.99,200.89,89.17
2918.4,113.50980392156863,-29.0,-258.01960784313724,135.23,199.07,136.28
2918.45,2.5098039215686274,-45.0,18.980392156862745,89.56,168.2,2.86
2918.5,136.01960784313727,303.5098039215686,95.98039215686275,17.46,70.44,0.69
2918.55,-86.98039215686275,264.0,-300.52941176470586,31.91,-68.53,3.18
2918.6,9.019607843137255,150.0,-127.03921568627452,-199.88,-141.79,-44.41
2918.65,-254.47058823529412,19.0,-216.54901960784315,-263.76,-259.28,-160.89
2918.7,-191.47058823529412,313.0,-46.549019607843135,-304.5,235.64,-264.7
2918.75,245.0392156862745,226.49019607843138,195.9607843137255,-270.86,148.77,-297.15
2918.8,-72.96078431372548,24.980392156862745,292.4901960784314,-121.52,155.8,-227.04
2918.85,31.529411764705884,-18.50980392156863,-6.490196078431373,-15.15,258.84,-92.99
2918.9,-108.49019607843137,-214.50980392156862,-70.98039215686275,-66.18,-269.05,-16.66
2918.95,208.50980392156862,-149.50980392156862,-255.98039215686273,-108.15,-194.88,-6.33
2919.0,11.0,-29.0,21.019607843137255,-109.62,-170.77,-18.58
2919.05,58.0,-209.0,113.01960784313725,-64.99,-174.16,-34.47
2919.1,27.0,19.0,175.01960784313727,-60.51,-151.94,-26.35
2919.15,-20.0,52.0,129.01960784313727,-69.68,-116.66,-20.4
2919.2,-163.0,68.0,221.01960784313727,-52.81,-103.01,-16.2
2919.25,-195.0,133.0,252.01960784313727,-50.12,-97.65,-13.82
2919.3,-275.0,84.0,-298.4901960784314,-50.85,-93.63,-15.19
2919.35,304.5098039215686,84.0,313.01960784313724,-34.12,-83.37,-13.19
2919.4,177.50980392156862,150.0,282.01960784313724,-40.74,-64.47,-16.24
2919.45,129.50980392156862,150.0,236.01960784313727,-37.31,-57.05,-7.0
2919.5,81.50980392156863,248.0,282.01960784313724,-14.1,-64.79,2.58
2919.55,34.509803921568626,-280.5098039215686,-190.49019607843138,20.64,-65.38,-5.04
2919.6,-108.49019607843137,-198.50980392156862,-21.49019607843137,-49.63,21.34,11.02
2919.65,311.01960784313724,84.0,-194.98039215686273,23.83,-3.08,11.51
2919.7,49.509803921568626,183.0,267.01960784313724,40.17,-7.67,-9.94
2919.75,65.50980392156863,313.0,221.01960784313727,61.87,5.2,-8.85
2919.8,-61.490196078431374,-247.50980392156862,252.01960784313727,33.84,33.66,0.34
2919.85,-172.49019607843138,297.0,-267.4901960784314,30.65,64.56,8.46
2919.9,-45.490196078431374,166.0,298.01960784313724,30.72,84.06,7.55
2919.95,81.50980392156863,133.0,221.01960784313727,48.85,96.59,5.66
2920.0,161.50980392156862,183.0,175.01960784313727,46.51,111.71,6.15
2920.05,193.50980392156862,150.0,144.01960784313727,55.82,130.68,9.51
2920.1,240.50980392156862,183.0,82.01960784313725,68.8,149.02,13.43
2920.15,256.5098039215686,101.0,36.01960784313726,91.06,166.97,16.55
2920.2,272.5098039215686,101.0,129.01960784313727,115.39,183.95,17.63
2920.25,320.5098039215686,52.0,67.01960784313725,141.08,218.07,15.01
2920.3,-195.0,19.0,67.01960784313725,117.0,254.44,11.58
2920.35,-306.0,35.0,-283.4901960784314,85.39,267.49,32.12
2920.4,-147.0,35.0,39.509803921568626,124.42,275.86,71.25
2920.45,265.0,-241.0,193.50980392156862,153.19,283.87,56.55
2920.5,27.0,303.5098039215686,-187.0,138.14,289.93,62.54
2920.55,-147.0,-111.0,166.0,152.14,290.24,48.99
2920.6,-227.0,-111.0,-230.50980392156862,144.3,281.39,27.4
2920.65,193.50980392156862,19.0,46.490196078431374,132.12,283.31,41.47
2920.7,81.50980392156863,117.0,138.49019607843138,130.16,246.11,25.65
2920.75,-124.49019607843137,-45.0,-119.01960784313725,145.28,221.01,53.16
2920.8,-188.49019607843138,183.0,-212.01960784313727,128.13,163.75,30.76
2920.85,231.01960784313727,-214.50980392156862,3.980392156862745,12.63,62.39,16.55
2920.9,-197.98039215686273,-84.50980392156863,99.47058823529412,-83.58,-139.27,-2.55
2920.95,149.0392156862745,-296.5098039215686,-197.05882352941177,-270.09,-321.09,-120.08
2921.0,102.03921568627452,101.0,64.94117647058823,-260.92,214.64,-173.32
2921.05,86.03921568627452,8.980392156862745,272.96078431372547,-267.29,126.96,-177.34
2921.1,54.03921568627451,-143.52941176470588,-227.01960784313727,-200.37,87.45,-139.54
2921.15,-270.47058823529414,275.4901960784314,104.0,-74.34,219.92,-111.4
2921.2,200.01960784313727,68.0,113.01960784313725,-59.88,-320.29,-40.53
2921.25,2.5098039215686274,-280.5098039215686,-117.98039215686275,-114.69,-228.76,14.59
2921.3,288.5098039215686,232.0,67.01960784313725,-132.47,-203.32,13.96
2921.35,-259.0,221.50980392156862,267.01960784313724,-68.56,-200.06,1.22
2921.4,-131.0,-78.0,82.01960784313725,-50.96,-163.42,10.39
2921.45,-179.0,19.0,-55.98039215686274,-40.63,-139.37,12.52
2921.5,304.5098039215686,19.0,144.01960784313727,-50.4,-123.48,12.7
2921.55,272.5098039215686,35.0,221.01960784313727,-51.9,-103.29,9.37
2921.6,240.50980392156862,3.0,282.01960784313724,-56.84,-81.59,3.53
2921.65,145.50980392156862,3.0,252.01960784313727,-42.66,-76.02,-5.91
2921.7,65.50980392156863,84.0,-298.4901960784314,-70.0,-67.41,-8.99
2921.75,2.5098039215686274,101.0,-283.4901960784314,-56.0,-63.7,-7.63
2921.8,49.509803921568626,232.0,-267.4901960784314,-5.42,-22.93,12.87
2921.85,-77.49019607843137,-280.5098039215686,36.01960784313726,-62.02,20.6,31.14
2921.9,279.01960784313724,177.49019607843138,201.52941176470588,9.37,-9.42,1.39
2921.95,-306.0,232.0,267.01960784313724,8.81,-1.61,-5.0
2922.0,113.50980392156863,-231.50980392156862,313.01960784313724,36.88,12.1,-3.39
2922.05,129.50980392156862,-198.50980392156862,98.01960784313725,65.58,16.86,-14.14
2922.1,-45.490196078431374,297.0,236.01960784313727,56.03,65.68,7.66
2922.15,-204.49019607843138,-263.5098039215686,267.01960784313724,44.41,94.59,12.35
2922.2,18.50980392156863,117.0,159.01960784313727,52.46,110.8,10.18
2922.25,81.50980392156863,117.0,113.01960784313725,64.32,128.82,8.11
2922.3,145.50980392156862,117.0,5.019607843137255,75.0,149.82,10.14
2922.35,224.50980392156862,150.0,36.01960784313726,87.98,170.23,8.81
2922.4,256.5098039215686,52.0,82.01960784313725,103.87,183.14,6.15
2922.45,320.5098039215686,52.0,98.01960784313725,116.26,199.98,1.36
2922.5,-290.0,35.0,113.01960784313725,142.02,222.38,-2.38
2922.55,-227.0,84.0,129.01960784313727,129.49,258.81,-4.02
2922.6,-290.0,-13.0,-283.4901960784314,132.78,273.79,5.77
2922.65,-211.0,133.0,55.509803921568626,91.38,297.45,49.27
2922.7,-36.0,-62.0,-156.0,135.55,287.48,63.41
2922.75,170.0,-160.0,258.0,109.51,289.75,59.53
2922.8,11.0,-78.0,-199.50980392156862,102.96,284.54,62.89
2922.85,-290.0,-78.0,138.49019607843138,87.11,267.7,49.59
2922.9,288.5098039215686,68.0,153.49019607843138,90.78,246.04,69.99
2922.95,193.50980392156862,-94.0,277.4901960784314,99.92,271.59,133.62
2923.0,113.50980392156863,35.0,77.49019607843137,180.52,238.23,77.06
2923.05,-236.49019607843138,35.0,-150.01960784313727,28.76,174.53,22.99
2923.1,-149.98039215686273,215.0,-73.01960784313725,116.96,-83.06,5.42
2923.15,-276.98039215686276,166.0,195.9607843137255,-48.65,-158.45,-43.99
2923.2,22.03921568627451,227.01960784313727,195.9607843137255,-202.02,-283.61,-107.73
2923.25,-25.96078431372549,-18.50980392156863,91.45098039215686,-262.32,162.31,-204.61
2923.3,22.03921568627451,-171.01960784313727,-31.54901960784314,-197.08,41.63,-180.11
2923.35,171.54901960784315,318.98039215686276,280.98039215686276,-57.26,40.37,-80.57
2923.4,-168.9607843137255,-187.01960784313727,-307.5098039215686,-38.6,225.66,11.33
2923.45,-223.47058823529412,30.49019607843137,186.52941176470588,-69.19,-266.46,87.63
2923.5,-172.49019607843138,-62.0,17.529411764705884,-56.73,-209.83,88.09
2923.55,-116.0,123.50980392156863,-193.98039215686273,-113.15,-164.61,54.98
2923.6,11.0,-154.49019607843138,-9.980392156862745,-65.83,-143.4,44.55
2923.65,-20.0,270.5098039215686,-101.98039215686275,-71.92,-111.2,40.1
2923.7,-131.0,-307.0,21.019607843137255,-75.7,-98.11,37.2
2923.75,-147.0,-225.0,159.01960784313727,-78.22,-85.47,28.1
2923.8,-163.0,-225.0,313.01960784313724,-61.77,-77.7,16.93
2923.85,-195.0,-127.0,-313.4901960784314,-53.93,-70.91,9.58
2923.9,-259.0,-111.0,-313.4901960784314,-47.25,-70.91,9.41
2923.95,272.5098039215686,-78.0,-283.4901960784314,-45.53,-77.32,12.03
2924.0,240.50980392156862,52.0,-252.49019607843138,-45.78,-76.9,7.69
2924.05,129.50980392156862,150.0,298.01960784313724,-40.18,-79.52,5.38
2924.1,81.50980392156863,117.0,-283.4901960784314,-55.02,-44.49,-33.42
2924.15,-204.49019607843138,117.0,206.01960784313727,-36.5,15.91,-0.42
2924.2,-93.49019607843137,13.490196078431373,63.529411764705884,38.11,-1.89,13.68
2924.25,113.50980392156863,281.0,144.01960784313727,20.43,17.24,-8.75
2924.3,97.50980392156863,19.0,98.01960784313725,55.99,42.48,-1.92
2924.35,-93.49019607843137,281.0,144.01960784313727,40.73,80.91,0.2
2924.4,-61.490196078431374,-29.0,82.01960784313725,71.78,89.52,0.76
2924.45,129.50980392156862,52.0,144.01960784313727,74.44,96.52,-1.43
2924.5,224.50980392156862,-45.0,144.01960784313727,71.15,106.53,-8.68
2924.55,240.50980392156862,-78.0,144.01960784313727,72.62,119.76,-13.79
2924.6,-306.0,-94.0,159.01960784313727,76.68,130.4,-14.14
2924.65,-290.0,-94.0,190.01960784313727,84.66,138.45,-17.67
2924.7,-195.0,-209.0,221.01960784313727,92.64,150.84,-23.87
2924.75,-163.0,-274.0,159.01960784313727,110.87,170.61,-31.15
2924.8,-131.0,-258.0,113.01960784313725,131.77,213.28,-43.61
2924.85,-68.0,-290.0,144.01960784313727,93.48,247.47,-44.52
2924.9,-211.0,-176.0,-267.4901960784314,97.08,269.91,-19.35
2924.95,-100.0,-62.0,24.50980392156863,106.85,295.18,21.48
2925.0,106.0,-290.0,-264.0,127.36,294.76,23.65
2925.05,27.0,-290.0,181.0,118.36,279.95,25.72
2925.1,-227.0,35.0,-215.50980392156862,105.73,269.31,32.96
2925.15,320.5098039215686,52.0,92.49019607843137,109.09,253.98,37.41
2925.2,208.50980392156862,35.0,246.49019607843138,101.98,243.87,51.34
2925.25,65.50980392156863,35.0,-289.01960784313724,110.24,261.89,112.83
2925.3,-188.49019607843138,35.0,-89.01960784313725,83.96,198.16,35.73
2925.35,295.01960784313724,-127.0,3.980392156862745,37.58,89.27,22.64
2925.4,72.01960784313725,-247.50980392156862,218.98039215686273,-99.19,-106.75,15.15
2925.45,-223.47058823529412,52.0,-154.54901960784315,-184.03,326.18,-70.98
2925.5,123.54901960784314,248.0,187.94117647058823,-305.41,169.45,-211.43
2925.55,-311.96078431372547,-2.5098039215686274,153.45098039215685,-315.07,79.75,-240.8
2925.6,-104.96078431372548,85.47058823529412,95.98039215686275,-41.93,94.69,-115.18
2925.65,-143.47058823529412,-274.52941176470586,-67.49019607843137,-119.07,284.64,-22.99
2925.7,200.01960784313727,248.0,-301.98039215686276,-84.14,-261.7,4.68
2925.75,-306.0,19.0,67.01960784313725,-100.31,-215.57,9.51
2925.8,-84.0,188.50980392156862,129.01960784313727,-117.18,-191.45,-3.18
2925.85,27.0,188.50980392156862,252.01960784313727,-95.27,-175.7,2.16
2925.9,-84.0,-143.0,159.01960784313727,-52.67,-147.74,6.92
2925.95,-116.0,-45.0,82.01960784313725,-62.51,-129.5,5.49
2926.0,-211.0,-94.0,190.01960784313727,-57.96,-116.69,10.21
2926.05,-243.0,-62.0,298.01960784313724,-48.44,-99.26,8.67
2926.1,-211.0,-94.0,252.01960784313727,-20.4,-83.83,1.08
2926.15,-290.0,3.0,236.01960784313727,-21.17,-70.84,4.58
2926.2,224.50980392156862,-29.0,-313.4901960784314,-12.35,-66.82,13.33
2926.25,145.50980392156862,52.0,-267.4901960784314,6.92,-74.48,17.04
2926.3,81.50980392156863,52.0,-283.4901960784314,5.21,-75.88,17.04
2926.35,2.5098039215686274,84.0,-221.49019607843138,16.72,-67.62,-0.14
2926.4,-61.490196078431374,35.0,-160.49019607843138,-111.26,53.43,22.25
2926.45,72.01960784313725,-170.49019607843138,-286.98039215686276,25.33,1.98,29.08
2926.5,97.50980392156863,117.0,-298.4901960784314,45.14,-2.59,-1.78
2926.55,193.50980392156862,150.0,206.01960784313727,52.98,2.89,-12.21
2926.6,34.509803921568626,84.0,236.01960784313727,47.73,10.38,-13.47
2926.65,-93.49019607843137,117.0,-267.4901960784314,18.68,45.07,-15.64
2926.7,-172.49019607843138,-94.0,267.01960784313724,28.76,67.08,-5.32
2926.75,49.509803921568626,-13.0,113.01960784313725,37.06,94.59,-11.34
2926.8,113.50980392156863,-62.0,21.019607843137255,41.78,108.8,-13.89
2926.85,193.50980392156862,-111.0,36.01960784313726,48.01,126.93,-8.22
2926.9,161.50980392156862,-127.0,67.01960784313725,85.85,146.99,-8.19
2926.95,177.50980392156862,-94.0,-40.98039215686274,105.34,163.02,-10.99
2927.0,224.50980392156862,-160.0,82.01960784313725,112.76,177.93,-20.3
2927.05,288.5098039215686,-127.0,144.01960784313727,122.88,200.5,-29.89
2927.1,-275.0,-143.0,129.01960784313727,117.28,235.99,-39.9
2927.15,-211.0,-176.0,175.01960784313727,105.03,271.27,-42.31
2927.2,304.5098039215686,-13.0,-175.49019607843138,97.61,294.55,-4.79
2927.25,-195.0,3.0,101.50980392156863,144.58,305.01,33.49
2927.3,74.0,-241.0,-156.0,139.85,283.59,23.3
2927.35,42.0,-192.0,243.0,135.93,270.4,23.72
2927.4,-147.0,-13.0,-76.50980392156863,104.92,255.87,12.98
2927.45,-290.0,19.0,138.49019607843138,120.92,235.05,20.85
2927.5,256.5098039215686,3.0,246.49019607843138,100.34,229.1,50.29
2927.55,-13.490196078431373,52.0,-242.01960784313727,188.26,239.7,98.1
2927.6,34.509803921568626,35.0,-212.01960784313727,149.3,218.67,7.24
2927.65,279.01960784313724,-160.0,-181.01960784313727,-23.97,122.84,8.78
2927.7,9.019607843137255,-67.50980392156863,203.98039215686273,-49.45,-52.92,28.38
2927.75,-276.98039215686276,-100.50980392156863,171.94117647058823,-256.34,-248.82,-80.67
2927.8,181.0392156862745,-133.50980392156862,-243.05882352941177,-306.21,253.38,-226.27
2927.85,165.0392156862745,-214.50980392156862,-0.5490196078431373,312.85,171.48,-288.64
2927.9,-104.96078431372548,-236.01960784313727,-161.52941176470588,-276.25,137.99,-255.64
2927.95,133.0392156862745,24.980392156862745,-246.50980392156862,-124.11,172.43,-212.8
2928.0,63.529411764705884,177.49019607843138,-113.49019607843137,31.11,267.07,-102.76
2928.05,-267.4901960784314,-35.509803921568626,-240.98039215686273,-75.21,-242.06,-14.84
2928.1,-243.0,150.0,294.52941176470586,-77.24,-187.25,7.83
2928.15,154.0,-94.0,-209.98039215686273,-83.19,-168.35,-10.5
2928.2,74.0,-258.0,98.01960784313725,-49.52,-147.56,-17.29
2928.25,11.0,-29.0,67.01960784313725,-72.55,-111.97,0.34
2928.3,-100.0,19.0,175.01960784313727,-57.99,-100.35,-0.21
2928.35,-147.0,84.0,252.01960784313727,-63.35,-91.49,-1.22
2928.4,-163.0,52.0,313.01960784313724,-44.94,-82.04,-0.49
2928.45,-131.0,52.0,-298.4901960784314,-40.77,-70.6,-5.32
2928.5,-227.0,68.0,-283.4901960784314,-38.5,-66.05,-9.17
2928.55,272.5098039215686,133.0,-298.4901960784314,-42.63,-62.58,-8.08
2928.6,145.50980392156862,248.0,-267.4901960784314,-40.04,-65.84,-5.77
2928.65,97.50980392156863,264.0,-236.49019607843138,-28.49,-69.51,-12.46
2928.7,65.50980392156863,264.0,-190.49019607843138,34.68,-72.24,-19.0
2928.75,-93.49019607843137,-312.5098039215686,-98.49019607843137,-62.3,37.54,15.32
2928.8,-236.49019607843138,-45.0,190.01960784313727,21.06,-10.12,3.21
2928.85,177.50980392156862,215.0,267.01960784313724,48.96,0.2,-7.84
2928.9,-45.490196078431374,232.0,129.01960784313727,23.93,30.75,4.44
2928.95,-124.49019607843137,313.0,267.01960784313724,24.46,66.91,19.42
2929.0,-45.490196078431374,313.0,129.01960784313727,19.63,84.62,24.46
2929.05,34.509803921568626,215.0,175.01960784313727,38.07,94.52,25.33
2929.1,177.50980392156862,183.0,113.01960784313725,44.65,119.55,21.27
2929.15,113.50980392156863,183.0,82.01960784313725,61.63,131.24,21.06
2929.2,177.50980392156862,232.0,175.01960784313727,60.16,146.36,32.79
2929.25,240.50980392156862,297.0,190.01960784313727,74.19,153.88,38.42
2929.3,-259.0,215.0,236.01960784313727,87.32,159.97,36.01
2929.35,-211.0,101.0,252.01960784313727,107.97,188.08,37.62
2929.4,-211.0,3.0,113.01960784313725,123.54,214.22,41.22
2929.45,-52.0,-13.0,236.01960784313727,115.81,237.6,40.45
2929.5,-84.0,68.0,-113.49019607843137,100.13,251.64,59.6
2929.55,-84.0,101.0,116.50980392156863,143.74,257.76,104.71
2929.6,170.0,-94.0,316.5098039215686,161.27,260.77,101.88
2929.65,122.0,156.50980392156862,104.0,168.94,247.16,55.78
2929.7,27.0,303.5098039215686,258.0,143.25,235.33,35.48
2929.75,-52.0,-225.0,-15.509803921568627,122.77,227.31,29.29
2929.8,-227.0,-78.0,138.49019607843138,124.35,221.33,21.06
2929.85,272.5098039215686,-94.0,153.49019607843138,96.17,274.35,110.7
2929.9,145.50980392156862,-13.0,-258.01960784313724,172.44,256.92,54.87
2929.95,311.01960784313724,-192.0,-242.01960784313727,-22.64,166.69,16.23
2930.0,72.01960784313725,-263.5098039215686,-315.52941176470586,-17.74,-11.45,59.56
2930.05,-308.98039215686276,117.0,133.9607843137255,-197.12,-152.64,-18.79
2930.1,70.03921568627452,156.50980392156862,76.45098039215686,-171.04,-297.89,-143.74
2930.15,-152.9607843137255,-192.0,272.96078431372547,-206.11,204.94,-258.72
2930.2,-111.47058823529412,128.49019607843138,-220.0392156862745,-313.39,170.5,-225.01
2930.25,94.52941176470588,57.98039215686274,172.98039215686273,-186.51,124.23,-221.48
2930.3,110.52941176470588,-225.52941176470588,319.0,-112.98,246.8,-148.78
2930.35,238.52941176470588,-45.0,94.52941176470588,-33.46,-286.76,-42.21
2930.4,-29.49019607843137,166.0,-275.47058823529414,-54.35,-191.91,-12.07
2930.45,90.0,-241.0,232.52941176470588,-65.48,-170.28,-25.69
2930.5,249.0,-209.0,-9.980392156862745,-64.22,-157.12,-34.02
2930.55,90.0,-45.0,113.01960784313725,-66.78,-130.55,-21.91
2930.6,-68.0,35.0,98.01960784313725,-55.05,-103.36,-5.14
2930.65,-179.0,68.0,206.01960784313727,-45.71,-93.42,-1.12
2930.7,-147.0,35.0,282.01960784313724,-34.12,-85.93,-8.33
2930.75,-116.0,19.0,-298.4901960784314,-22.85,-74.1,-14.14
2930.8,-195.0,35.0,-298.4901960784314,-4.3,-68.81,-6.4
2930.85,304.5098039215686,166.0,-298.4901960784314,-9.13,-62.86,0.9
2930.9,161.50980392156862,101.0,-298.4901960784314,-2.76,-73.57,4.23
2930.95,65.50980392156863,150.0,-175.49019607843138,-22.36,-86.91,-8.64
2931.0,65.50980392156863,35.0,-160.49019607843138,-19.7,-69.9,-11.97
2931.05,-61.490196078431374,19.0,-252.49019607843138,-3.15,-35.49,3.53
2931.1,-252.49019607843138,199.0,313.01960784313724,-26.67,17.17,16.72
2931.15,-156.49019607843138,199.0,278.52941176470586,4.16,4.36,5.28
2931.2,-13.490196078431373,68.0,252.01960784313727,12.52,13.36,-4.02
2931.25,18.50980392156863,199.0,252.01960784313727,7.94,38.03,0.2
2931.3,-156.49019607843138,199.0,298.01960784313724,10.11,60.78,8.32
2931.35,-61.490196078431374,101.0,252.01960784313727,16.3,75.34,9.09
2931.4,49.509803921568626,52.0,236.01960784313727,34.71,90.43,5.98
2931.45,81.50980392156863,117.0,175.01960784313727,25.09,110.62,15.74
2931.5,18.50980392156863,150.0,144.01960784313727,49.38,134.35,38.0
2931.55,129.50980392156862,215.0,82.01960784313725,75.8,150.7,44.93
2931.6,-306.0,215.0,159.01960784313727,69.36,164.7,41.78
2931.65,-195.0,68.0,175.01960784313727,80.07,179.01,30.16
2931.7,-211.0,68.0,82.01960784313725,104.26,203.62,26.35
2931.75,-227.0,35.0,21.019607843137255,108.46,239.39,44.76
2931.8,-227.0,35.0,159.01960784313727,128.09,256.78,47.49
2931.85,-195.0,133.0,-144.49019607843138,68.45,270.75,80.74
2931.9,-52.0,-45.0,116.50980392156863,175.76,247.16,116.72
2931.95,-234.50980392156862,-192.0,-249.0,162.04,247.02,95.37
2932.0,122.0,319.5098039215686,89.0,166.1,244.95,86.13
2932.05,-68.0,-78.0,-261.5098039215686,133.45,246.6,66.14
2932.1,-259.0,-143.0,77.49019607843137,138.66,234.56,78.39
2932.15,256.5098039215686,-78.0,184.49019607843138,117.94,235.68,86.93
2932.2,145.50980392156862,-192.0,184.49019607843138,127.64,230.01,142.86
2932.25,2.5098039215686274,19.0,-165.01960784313727,171.67,193.96,106.88
2932.3,-188.49019607843138,-209.0,-181.01960784313727,129.46,134.77,65.34
2932.35,216.01960784313727,183.0,-104.01960784313725,89.42,1.32,33.87
2932.4,9.019607843137255,35.0,-23.529411764705884,-65.34,-87.75,-30.97
2932.45,308.03921568627453,-78.0,302.96078431372547,-222.32,-215.88,-110.0
2932.5,165.0392156862745,30.49019607843137,214.45098039215685,-300.68,278.76,-207.93
2932.55,-302.47058823529414,111.49019607843137,-31.54901960784314,-316.22,189.37,-268.97
2932.6,-9.96078431372549,57.98039215686274,-208.52941176470588,-216.09,113.03,-245.0
2932.65,229.0392156862745,-318.01960784313724,-46.509803921568626,-43.47,168.47,-148.92
2932.7,47.529411764705884,193.49019607843138,-298.4901960784314,-102.58,327.3,-80.57
2932.75,247.01960784313727,248.0,-101.98039215686275,-89.81,-236.01,-8.78
2932.8,-211.0,-312.5098039215686,309.52941176470586,-102.62,-186.48,10.11
2932.85,-4.0,3.0,-9.980392156862745,-108.01,-174.02,-5.25
2932.9,-4.0,-143.0,52.01960784313726,-96.25,-151.73,-28.8
2932.95,-84.0,-62.0,-9.980392156862745,-86.27,-128.35,-23.24
2933.0,-227.0,117.0,98.01960784313725,-48.3,-110.57,-12.18
2933.05,-195.0,199.0,144.01960784313727,-41.4,-94.61,-10.67
2933.1,-195.0,101.0,267.01960784313724,-20.47,-86.98,-11.9
2933.15,-211.0,133.0,-298.4901960784314,-15.82,-72.38,-13.19
2933.2,-243.0,117.0,-298.4901960784314,-20.79,-67.8,-12.49
2933.25,288.5098039215686,199.0,-298.4901960784314,-34.23,-70.42,-10.88
2933.3,177.50980392156862,297.0,-267.4901960784314,-38.04,-68.43,-10.6
2933.35,81.50980392156863,-312.5098039215686,-236.49019607843138,-27.3,-64.96,-8.26
2933.4,81.50980392156863,-312.5098039215686,-237.49019607843138,37.86,-47.92,-2.8
2933.45,-156.49019607843138,-263.5098039215686,-221.49019607843138,-23.59,15.88,18.82
2933.5,-93.49019607843137,166.0,129.01960784313727,-27.02,11.96,6.78
2933.55,2.5098039215686274,84.0,144.01960784313727,45.32,-3.85,-11.97
2933.6,97.50980392156863,-296.5098039215686,267.01960784313724,20.19,12.27,-9.48
2933.65,-77.49019607843137,313.0,-298.4901960784314,21.9,42.93,1.99
2933.7,-124.49019607843137,281.0,298.01960784313724,38.32,57.98,11.75
2933.75,-45.490196078431374,215.0,221.01960784313727,69.99,65.44,13.68
2933.8,65.50980392156863,166.0,267.01960784313724,79.23,75.2,10.91
2933.85,177.50980392156862,150.0,206.01960784313727,34.68,101.91,5.24
2933.9,193.50980392156862,52.0,129.01960784313727,5.45,135.82,3.77
2933.95,208.50980392156862,35.0,-9.980392156862745,45.18,162.46,14.13
2934.0,256.5098039215686,101.0,-132.98039215686273,77.55,184.4,19.03
