rel_time,acc_x,acc_y,acc_z,gyro_x,gyro_y,gyro_z
1.0,304.5098039215686,199.0,-313.4901960784314,-63.46,-4.93,-183.93
1.05,256.5098039215686,-45.0,-144.49019607843138,-79.91,11.51,-160.45
1.1,-259.0,52.0,206.01960784313727,-60.59,4.44,-117.75
1.15,295.01960784313724,46.490196078431374,-175.49019607843138,-90.76,-0.59,-79.88
1.2,-59.509803921568626,90.50980392156863,298.01960784313724,-61.57,-2.13,-47.19
1.25,288.5098039215686,291.4901960784314,-144.49019607843138,-103.53,7.94,-43.06
1.3,231.01960784313727,-18.50980392156863,-160.49019607843138,-77.67,12.18,-38.16
1.35,-59.509803921568626,-274.0,-270.98039215686276,-39.27,12.11,-24.37
1.4,-211.0,-231.50980392156862,70.50980392156863,70.72,9.76,-15.55
1.45,200.01960784313727,-286.01960784313724,-283.4901960784314,-17.85,23.9,-13.13
1.5,281.0,-89.49019607843137,282.01960784313724,15.35,5.07,6.63
1.55,256.5098039215686,-116.50980392156863,313.01960784313724,32.99,-0.13,-7.78
1.6,120.01960784313725,-35.509803921568626,-36.490196078431374,-55.62,28.17,-14.78
1.65,58.0,276.01960784313724,252.01960784313727,-49.81,26.98,-25.24
1.7,177.50980392156862,-116.50980392156863,-206.49019607843138,-177.14,55.3,-42.64
1.75,41.01960784313726,-182.50980392156862,39.509803921568626,-155.58,81.97,-116.7
1.8,11.0,-317.4901960784314,-190.49019607843138,-229.81,116.58,-147.22
1.85,-29.49019607843137,19.0,298.01960784313724,-190.61,131.49,-171.96
1.9,-6.980392156862745,275.4901960784314,-295.0,295.17,87.92,-155.16
1.95,249.0,254.50980392156862,316.5098039215686,-142.7,63.87,-168.01
2.0,-290.0,242.49019607843138,-310.0,-142.17,19.63,-80.12
2.05,190.52941176470588,-280.03921568627453,135.0,-14.53,-77.97,-3.93
2.1,-195.0,291.4901960784314,273.0,-100.49,-45.91,10.66
2.15,-243.0,-18.50980392156863,58.0,-63.14,-3.21,-25.73
2.2,-101.98039215686275,155.98039215686273,104.0,61.17,-12.31,-13.31
2.25,-195.0,-214.50980392156862,-79.0,124.13,-3.49,4.39
2.3,-61.490196078431374,209.49019607843138,-64.0,-219.06,-14.94,54.48
2.35,-315.4901960784314,187.98039215686273,-187.0,180.67,-107.58,113.31
2.4,-140.49019607843138,-192.52941176470588,-156.0,173.52,11.93,91.19
2.45,247.01960784313727,172.50980392156862,-203.0,156.02,-18.19,117.27
2.5,81.50980392156863,199.0,-21.49019607843137,58.93,4.13,86.92
2.55,-93.49019607843137,101.0,-129.49019607843138,50.74,-1.71,53.32
2.6,65.50980392156863,166.0,24.50980392156863,2.26,1.36,21.26
2.65,81.50980392156863,3.0,-67.49019607843137,15.63,-9.41,2.64
2.7,81.50980392156863,166.0,-98.49019607843137,-7.18,-23.76,-12.08
2.75,-172.49019607843138,248.0,-36.490196078431374,14.2,-56.73,-36.83
2.8,-4.0,123.50980392156863,-21.49019607843137,-48.86,-54.49,-79.35
2.85,161.50980392156862,-241.0,-175.49019607843138,-41.37,-77.8,-122.09
2.9,-276.98039215686276,307.4901960784314,116.50980392156863,-166.64,-45.14,-150.54
2.95,65.50980392156863,-56.490196078431374,224.50980392156862,-149.84,-44.41,-166.19
3.0,161.50980392156862,-45.0,-21.49019607843137,260.7,-1.6,-175.25
3.05,158.52941176470588,13.490196078431373,316.5098039215686,278.93,67.62,-174.38
3.1,152.01960784313727,215.0,-310.0,-263.06,66.08,-108.23
3.15,-84.0,-111.0,-190.49019607843138,-293.41,74.51,-68.96
3.2,-117.98039215686275,-236.01960784313727,12.0,-36.33,-34.71,-17.96
3.25,-299.4901960784314,307.4901960784314,70.50980392156863,-135.7,35.45,-22.09
3.3,-84.0,25.50980392156863,-129.49019607843138,-89.08,16.62,-23.07
3.35,-172.49019607843138,95.49019607843137,-83.49019607843137,-37.38,5.91,-17.79
3.4,25.019607843137255,128.49019607843138,-233.0,-54.5,10.92,-12.75
3.45,90.0,74.50980392156863,-221.49019607843138,-21.88,-2.41,10.83
3.5,-108.49019607843137,-198.50980392156862,-21.49019607843137,-34.62,4.72,12.65
3.55,-48.470588235294116,-89.01960784313725,-49.0,-50.09,0.84,15.35
3.6,2.5098039215686274,-62.0,132.50980392156862,-55.44,5.21,11.11
3.65,-275.0,117.0,-83.49019607843137,-44.63,-1.78,16.92
3.7,-213.98039215686273,57.98039215686274,-203.0,-57.3,-3.53,14.12
3.75,-108.49019607843137,-263.5098039215686,316.5098039215686,-51.73,5.67,6.04
3.8,-147.0,19.0,-98.49019607843137,-95.97,15.61,-3.89
3.85,-220.49019607843138,-2.5098039215686274,-249.0,-93.84,22.68,-42.67
3.9,-124.49019607843137,-149.50980392156862,224.50980392156862,-60.87,45.67,-65.32
3.95,-236.49019607843138,-214.50980392156862,193.50980392156862,-95.73,57.26,-41.13
4.0,279.01960784313724,-296.5098039215686,116.50980392156863,-80.82,74.69,-51.81
4.05,120.01960784313725,-116.50980392156863,39.509803921568626,-43.3,76.12,-61.61
4.1,120.01960784313725,-214.50980392156862,239.50980392156862,16.4,60.41,-66.05
4.15,-299.4901960784314,-67.50980392156863,-264.0,58.96,22.05,-45.86
4.2,-124.49019607843137,-247.50980392156862,-64.0,6.29,-1.74,-6.13
4.25,-124.49019607843137,-165.50980392156862,-95.0,-35.88,-20.19,31.9
4.3,-252.49019607843138,-35.509803921568626,43.0,-70.88,-26.24,55.0
4.35,231.01960784313727,-247.50980392156862,-156.0,-87.61,-31.21,74.18
4.4,249.0,188.50980392156862,70.50980392156863,-133.28,-10.63,60.36
4.45,-156.49019607843138,133.0,193.50980392156862,-48.34,-2.9,25.64
4.5,174.52941176470588,-24.019607843137255,-18.0,-59.43,6.16,13.21
4.55,15.529411764705882,-138.01960784313727,89.0,-19.71,-0.62,17.59
4.6,279.01960784313724,-247.50980392156862,-33.0,-29.89,-16.27,38.34
4.65,-68.0,-290.0,-203.0,-30.21,-35.73,42.89
4.7,74.0,19.0,-141.0,-62.93,-63.8,28.82
4.75,240.50980392156862,95.49019607843137,43.0,-56.18,-35.03,5.27
4.8,-229.98039215686273,-111.52941176470588,258.0,-83.55,-10.77,11.25
4.85,-22.980392156862745,187.98039215686273,273.0,-101.01,91.28,-19.54
4.9,-13.490196078431373,-182.50980392156862,86.50980392156863,-72.45,179.3,-11.66
4.95,-36.0,183.0,-301.98039215686276,-179.48,205.34,74.5
5.0,-100.0,-51.509803921568626,52.01960784313726,-102.2,195.79,160.25
5.05,-6.980392156862745,281.47058823529414,-203.0,-167.16,98.07,264.27
5.1,-254.47058823529412,-317.54901960784315,-119.01960784313725,74.08,-70.73,-310.31
5.15,222.52941176470588,134.47058823529412,-315.52941176470586,155.35,-214.33,-260.72
5.2,113.50980392156863,-165.50980392156862,295.98039215686276,280.3,-294.59,321.63
5.25,297.0,-170.49019607843138,-58.01960784313726,86.86,320.63,189.4
5.3,-220.49019607843138,-154.49019607843138,-223.52941176470588,-110.81,-262.7,56.02
5.35,-64.47058823529412,3.0,-46.509803921568626,-151.59,-205.58,-4.03
5.4,231.01960784313727,221.50980392156862,89.0,-227.08,-130.44,-118.31
5.45,-220.49019607843138,291.4901960784314,-313.4901960784314,-147.6,-124.42,-118.13
5.5,240.50980392156862,-225.52941176470588,-101.98039215686275,-154.56,36.96,-245.67
5.55,-245.98039215686273,-176.52941176470588,-59.470588235294116,-276.36,173.74,-273.71
5.6,158.52941176470588,-24.019607843137255,-267.4901960784314,-129.89,228.65,-177.38
5.65,-84.0,-61.529411764705884,178.50980392156862,-261.94,201.91,35.9
5.7,-20.0,-253.01960784313727,101.50980392156863,-68.78,87.92,171.59
5.75,-227.0,128.49019607843138,243.0,-22.93,44.2,231.19
5.8,320.5098039215686,264.0,-315.52941176470586,-40.92,-214.37,225.91
5.85,249.0,-209.0,195.9607843137255,89.73,-321.89,169.1
5.9,113.50980392156863,-7.490196078431373,-174.0392156862745,-66.85,248.53,-51.21
5.95,18.50980392156863,-187.01960784313727,-276.5098039215686,104.95,99.47,227.27
6.0,187.54901960784315,-18.50980392156863,-162.94117647058823,-314.3,-319.47,-290.93
6.05,194.05882352941177,156.45098039215685,317.54901960784315,67.99,267.08,-43.58
6.1,217.0,-35.03921568627451,-277.54901960784315,-49.53,-166.1,113.03
6.15,-20.0,84.0,-16.54901960784314,-242.23,-239.64,-26.75
6.2,263.01960784313724,232.0,115.47058823529412,45.35,102.69,-315.36
6.25,238.52941176470588,-307.47058823529414,137.07843137254903,-152.39,234.15,-188.34
6.3,-64.47058823529412,-285.01960784313724,-301.98039215686276,270.92,186.65,154.26
6.35,-290.0,-208.05882352941177,-38.529411764705884,-227.75,-29.64,-266.67
6.4,-131.0,-127.52941176470588,-131.52941176470588,-17.78,202.05,289.33
6.45,-61.490196078431374,-247.50980392156862,-178.6078431372549,235.4,-282.58,2.29
6.5,-127.47058823529412,-171.01960784313727,-36.490196078431374,-47.43,-87.49,-310.04
6.55,162.05882352941177,-165.50980392156862,110.56862745098039,-73.57,309.71,-230.55
6.6,152.01960784313727,287.45098039215685,-266.4117647058824,89.62,-34.4,96.13
6.65,34.509803921568626,128.49019607843138,-62.549019607843135,321.92,-301.87,-12.08
6.7,-27.50980392156863,80.01960784313725,-220.0392156862745,-3.54,4.09,-174.34
6.75,113.50980392156863,-258.47058823529414,-305.47058823529414,-7.77,154.59,-148.13
6.8,-299.4901960784314,-138.01960784313727,-78.96078431372548,305.92,227.99,24.28
6.85,42.0,8.980392156862745,147.50980392156862,313.06,80.18,222.69
6.9,90.0,-133.50980392156862,-27.019607843137255,-75.6,276.63,278.2
6.95,-195.0,-231.50980392156862,153.45098039215685,-319.09,-308.03,130.85
7.0,-111.47058823529412,36.470588235294116,-175.49019607843138,38.03,-43.39,-209.27
7.05,258.05882352941177,178.01960784313727,-135.4313725490196,113.24,276.99,-298.56
7.1,-184.9607843137255,307.4901960784314,-220.45098039215685,26.31,-145.14,82.41
7.15,-320.01960784313724,46.96078431372549,-166.05882352941177,-231.24,-259.1,-20.73
7.2,-298.5098039215686,-78.0,-297.03921568627453,154.13,-59.7,-149.0
7.25,-195.0,52.0,224.50980392156862,-163.87,143.88,-175.43
7.3,-117.98039215686275,259.01960784313724,91.03921568627452,-109.66,147.42,-11.87
7.35,272.5098039215686,-45.529411764705884,249.98039215686273,274.28,175.45,138.44
7.4,122.0,-149.50980392156862,-12.019607843137255,-1.05,-209.61,240.33
7.45,233.0,150.0,149.9607843137255,244.15,226.34,308.51
7.5,-227.0,-182.0392156862745,-139.54901960784315,247.23,-92.99,-195.2
7.55,-228.4313725490196,84.0,-228.47058823529412,219.89,144.55,282.46
7.6,168.5686274509804,178.01960784313727,145.05882352941177,54.38,-1.78,16.71
7.65,186.0,248.94117647058823,169.49019607843138,-0.38,-224.87,73.45
7.7,186.0,-269.01960784313724,299.47058823529414,-304.39,-172.05,13.28
7.75,-236.49019607843138,205.50980392156862,-174.45098039215685,2.3,100.27,-159.43
7.8,263.01960784313724,-317.4901960784314,-293.96078431372547,-224.49,162.54,-112.14
7.85,-77.49019607843137,242.49019607843138,132.50980392156862,-311.64,174.54,112.51
7.9,-147.0,134.47058823529412,-177.52941176470588,-135.31,-82.49,224.51
7.95,210.49019607843138,204.98039215686273,-220.0392156862745,3.0,309.6,241.8
8.0,240.50980392156862,101.47058823529412,-264.0,-239.54,-189.31,-69.13
8.05,93.09803921568627,-258.52941176470586,-237.49019607843138,-252.63,27.02,318.13
8.1,-282.94117647058823,129.01960784313727,132.54901960784315,28.58,164.08,-42.04
8.15,-195.0,242.9607843137255,129.01960784313727,33.45,-51.62,50.21
8.2,-68.0,-182.50980392156862,17.941176470588236,-150.57,-215.21,-85.65
8.25,19.49019607843137,-219.49019607843138,-147.98039215686273,-83.27,46.65,-126.15
8.3,304.5098039215686,248.52941176470588,-175.49019607843138,-122.33,123.2,-102.17
8.35,-275.0,101.0,137.0392156862745,-56.25,183.15,-4.84
8.4,-243.0,-182.50980392156862,-187.0,263.01,154.38,139.01
8.45,208.50980392156862,-209.0,95.98039215686275,-116.31,-244.4,141.18
8.5,-130.01960784313727,-143.0,-7.529411764705882,-289.24,293.78,243.69
8.55,-38.98039215686274,248.94117647058823,-73.01960784313725,204.7,-137.37,-186.1
8.6,-162.45098039215685,281.0,-15.92156862745098,-141.72,-312.15,-233.45
8.65,200.01960784313727,-35.509803921568626,283.05882352941177,-97.65,114.17,44.89
8.7,-227.0,-165.0392156862745,195.9607843137255,-17.26,-175.87,72.89
8.75,186.0,-290.0,307.4901960784314,-179.48,-244.15,63.89
8.8,-75.50980392156863,-100.50980392156863,80.98039215686275,-147.84,53.34,-153.69
8.85,247.01960784313727,-285.96078431372547,-255.98039215686273,-161.63,165.55,-77.92
8.9,295.01960784313724,-165.50980392156862,-283.4901960784314,274.84,163.8,122.07
8.95,-43.509803921568626,-296.03921568627453,18.980392156862745,-175.74,-134.92,272.07
9.0,265.0,106.98039215686275,-31.54901960784314,177.37,236.31,295.98
9.05,25.019607843137255,-306.05882352941177,-204.0392156862745,267.91,-120.18,-225.48
9.1,-168.9607843137255,319.5098039215686,-82.45098039215686,-326.03,318.5,258.66
9.15,298.54901960784315,46.490196078431374,-5.450980392156863,-248.22,74.79,27.7
9.2,86.47058823529412,254.45098039215685,172.98039215686273,132.36,-205.02,125.77
9.25,163.49019607843138,-94.52941176470588,49.98039215686274,17.75,-183.85,94.41
9.3,184.01960784313727,-62.0,-138.88235294117646,-158.9,62.37,-173.22
9.35,-252.49019607843138,29.54901960784314,-298.4901960784314,-303.7,171.39,-156.81
9.4,-38.98039215686274,-121.49019607843137,-64.0,-214.9,110.6,85.77
9.45,304.5098039215686,205.45098039215685,0.49019607843137253,-224.84,-95.54,253.8
9.5,74.0,36.470588235294116,-143.0392156862745,-312.9,301.38,274.94
9.55,193.50980392156862,-280.03921568627453,279.94117647058823,198.65,-141.5,-183.93
9.6,-250.94117647058823,-236.01960784313727,-290.47058823529414,233.57,171.25,-321.97
9.65,73.56862745098039,-182.50980392156862,52.05882352941177,-0.6,44.31,-86.56
9.7,-218.50980392156862,107.45098039215686,-212.01960784313727,-179.27,-30.55,32.04
9.75,97.50980392156863,209.49019607843138,233.94117647058823,310.05,-229.31,-303.31
9.8,113.50980392156863,232.0,-62.549019607843135,-82.36,91.84,-206.71
9.85,-157.92156862745097,68.0,261.4901960784314,-121.21,175.14,5.13
9.9,41.01960784313726,84.0,-240.98039215686273,-52.36,-83.05,171.55
9.95,233.0,226.49019607843138,-181.01960784313727,104.22,-128.76,177.29
10.0,-315.4901960784314,79.49019607843137,-307.5098039215686,-40.04,-68.0,177.22
10.05,11.0,221.50980392156862,212.0,-113.05,-35.41,101.62
10.1,-11.509803921568627,-2.5098039215686274,286.5098039215686,-71.58,24.95,-218.34
10.15,-302.47058823529414,-241.52941176470588,24.50980392156863,53.99,74.76,-279.87
10.2,-22.980392156862745,-133.0392156862745,252.01960784313727,-72.31,142.31,-267.83
10.25,94.52941176470588,73.98039215686275,-249.0,-17.5,90.93,-100.25
10.3,-147.0,242.49019607843138,-49.0,-34.41,-66.67,33.3
10.35,-282.5098039215686,-2.5098039215686274,0.49019607843137253,-22.12,-75.17,63.37
10.4,97.50980392156863,177.49019607843138,-153.50980392156862,-20.16,-89.63,62.56
10.45,-156.49019607843138,144.49019607843138,104.0,4.54,-43.25,27.28
10.5,-86.98039215686275,-171.01960784313727,-249.0,19.73,-53.4,56.58
10.55,-77.49019607843137,-84.50980392156863,286.5098039215686,33.69,-17.42,20.77
10.6,-188.49019607843138,13.490196078431373,-218.0,98.23,-42.48,28.3
10.65,129.50980392156862,-198.50980392156862,-141.0,35.02,-14.34,13.81
10.7,-124.49019607843137,-198.50980392156862,-49.0,14.48,-13.78,4.6
10.75,-124.49019607843137,-51.509803921568626,-49.0,64.04,-23.65,-21.01
10.8,-252.49019607843138,111.49019607843137,-18.0,124.41,-28.06,-9.6
10.85,193.50980392156862,-286.01960784313724,12.0,90.85,-25.75,-4.59
10.9,-195.0,-269.01960784313724,-310.0,104.04,-33.87,18.22
10.95,-116.0,-73.01960784313725,-233.0,173.1,-43.01,99.77
11.0,-172.49019607843138,297.47058823529414,-144.49019607843138,135.05,67.86,259.16
11.05,222.52941176470588,199.47058823529412,221.01960784313727,60.26,130.3,-295.33
11.1,-127.47058823529412,-40.01960784313726,-270.98039215686276,64.35,244.61,-299.78
11.15,292.03921568627453,-84.50980392156863,-252.49019607843138,126.79,269.85,259.89
11.2,158.52941176470588,-62.0,-129.49019607843138,58.02,270.2,98.86
11.25,184.01960784313727,-160.0,123.49019607843137,111.22,217.84,62.6
11.3,208.50980392156862,-274.0,273.0,61.38,209.26,-39.63
11.35,-306.0,-143.0,-169.50980392156862,17.63,132.89,-106.93
11.4,265.0,-45.0,-242.01960784313727,34.18,98.14,-140.18
11.45,-202.50980392156862,-165.50980392156862,258.0,2.3,-8.67,-166.05
11.5,210.49019607843138,215.0,277.4901960784314,-15.89,59.11,-215.85
11.55,-202.50980392156862,-302.01960784313724,104.0,3.07,-7.87,-214.84
11.6,74.0,30.49019607843137,304.0,-62.86,2.66,-188.83
11.65,186.0,57.98039215686274,-80.0,-15.79,-41.85,-184.46
11.7,249.0,57.98039215686274,243.0,-98.81,-13.99,-125.9
11.75,11.0,155.98039215686273,43.0,-103.32,11.44,-75.08
11.8,-52.0,269.98039215686276,-203.0,-81.9,30.03,-81.14
11.85,42.0,-187.01960784313727,-80.0,-117.08,58.38,-91.57
11.9,-195.0,226.49019607843138,58.0,-49.0,69.86,-77.53
11.95,304.5098039215686,-187.01960784313727,12.0,-47.71,84.8,-77.85
12.0,81.50980392156863,209.49019607843138,166.0,-47.95,103.42,-53.0
12.05,34.509803921568626,-318.01960784313724,43.0,-111.76,130.37,-2.67
12.1,65.50980392156863,40.98039215686274,43.0,-45.61,125.86,60.11
12.15,-29.49019607843137,236.98039215686273,-203.0,-86.49,89.39,148.14
12.2,-108.49019607843137,285.98039215686276,-107.50980392156863,-84.14,6.19,237.14
12.25,65.50980392156863,-61.529411764705884,-289.01960784313724,41.01,-100.97,-316.26
12.3,-124.49019607843137,199.47058823529412,-84.52941176470588,111.36,-244.12,-279.44
12.35,295.01960784313724,302.98039215686276,256.96078431372547,151.54,306.56,-312.69
12.4,317.52941176470586,84.0,56.96078431372549,295.81,156.02,123.95
12.45,-302.47058823529414,-17.980392156862745,-115.52941176470588,81.26,173.38,15.91
12.5,-88.96078431372548,133.52941176470588,-196.01960784313727,-34.44,-255.28,-79.25
12.55,251.54901960784315,14.019607843137255,140.52941176470588,-89.57,-197.08,-195.66
12.6,-86.98039215686275,89.98039215686275,255.50980392156862,-46.62,-104.54,-198.6
12.65,-181.98039215686273,188.45098039215685,56.549019607843135,-251.3,59.22,-257.75
12.7,-283.4901960784314,-192.52941176470588,-255.98039215686273,-166.11,195.47,316.2
12.75,34.509803921568626,-318.01960784313724,36.01960784313726,-293.86,253.4,-137.35
12.8,256.5098039215686,111.49019607843137,9.509803921568627,-309.02,167.86,139.11
12.85,-179.0,-61.529411764705884,-261.5098039215686,72.58,-11.65,248.62
12.9,-131.0,-225.52941176470588,-161.52941176470588,53.33,-223.89,233.64
12.95,-306.0,35.0,-16.54901960784314,197.07,-271.56,155.91
13.0,240.50980392156862,-89.49019607843137,99.47058823529412,-52.68,-200.33,-50.58
13.05,272.5098039215686,-290.0,153.49019607843138,-39.97,64.15,-300.03
13.1,-152.9607843137255,122.98039215686275,129.05882352941177,-160.06,220.46,323.83
13.15,-244.4313725490196,-280.03921568627453,-82.45098039215686,-146.76,241.29,-17.12
13.2,-211.0,-61.529411764705884,-269.52941176470586,109.78,-135.34,103.93
13.25,90.0,171.98039215686273,287.96078431372547,-117.21,-271.38,53.25
13.3,74.0,52.0,49.98039215686274,-13.97,50.92,-205.42
13.35,41.01960784313726,225.07843137254903,299.05882352941177,-48.16,144.93,-110.01
13.4,-286.47058823529414,68.52941176470588,-32.96078431372549,275.54,304.18,-87.05
13.45,129.50980392156862,-8.019607843137255,-231.54901960784315,-302.09,63.8,269.1
13.5,67.49019607843137,52.470588235294116,-127.03921568627452,-311.15,325.49,306.9
13.55,-163.0,-105.49019607843137,-123.54901960784314,190.98,-256.05,24.69
13.6,231.01960784313727,13.96078431372549,-13.470588235294118,180.38,-84.87,-304.58
13.65,115.05882352941177,-286.01960784313724,48.568627450980394,277.33,310.41,-235.76
13.7,31.529411764705884,-29.0,-113.45098039215686,-71.3,-79.93,18.71
13.75,-289.01960784313724,171.98039215686273,122.45098039215686,-99.5,-210.2,19.06
13.8,-139.50980392156862,-160.52941176470588,-201.58823529411765,277.43,6.12,-158.38
13.85,-13.490196078431373,182.0,-244.47058823529412,-74.62,120.43,-135.21
13.9,94.52941176470588,-209.47058823529412,-1.9607843137254901,-168.25,247.76,-89.15
13.95,256.5098039215686,318.98039215686276,292.4901960784314,-95.59,38.95,250.16
14.0,-91.50980392156863,269.98039215686276,253.47058823529412,50.56,-293.75,325.17
14.05,217.0,3.0,256.96078431372547,204.74,-213.14,173.62
14.1,-61.490196078431374,89.98039215686275,172.98039215686273,13.18,-51.58,-123.8
14.15,54.588235294117645,-160.0,56.549019607843135,253.77,180.7,-272.1
14.2,-72.96078431372548,269.98039215686276,-244.47058823529412,78.56,-12.35,6.84
14.25,-270.03921568627453,-286.01960784313724,38.470588235294116,136.73,-170.13,-7.01
14.3,-195.0,101.0,-18.0,303.82,-82.94,-192.82
14.35,304.5098039215686,236.98039215686273,9.509803921568627,-293.69,181.09,-202.97
14.4,311.01960784313724,-182.50980392156862,-262.96078431372547,-15.93,190.26,-40.85
14.45,18.50980392156863,187.98039215686273,247.52941176470588,221.46,211.96,75.93
14.5,-116.0,-171.01960784313727,203.98039215686273,-89.67,-230.68,272.28
14.55,-107.50980392156863,85.47058823529412,168.45098039215685,190.63,282.93,283.45
14.6,-172.49019607843138,62.96078431372549,106.45098039215686,-110.0,-129.95,-109.91
14.65,80.07843137254902,160.49019607843138,263.52941176470586,43.07,29.85,-244.38
14.7,-5.431372549019608,280.52941176470586,148.54901960784315,72.79,221.72,-82.64
14.75,4.490196078431373,287.921568627451,-236.49019607843138,48.36,-56.66,51.15
14.8,-298.5098039215686,177.49019607843138,99.47058823529412,-62.65,-199.6,7.58
14.85,224.50980392156862,248.0,125.94117647058823,-0.53,-7.66,-43.58
14.9,145.50980392156862,95.54901960784314,198.0392156862745,-53.87,72.03,-144.31
14.95,-124.49019607843137,-236.01960784313727,-13.470588235294118,56.37,230.89,42.47
15.0,129.50980392156862,286.5098039215686,229.0392156862745,-157.71,-9.97,207.6
15.05,-91.50980392156863,-269.01960784313724,161.47058823529412,48.46,-309.71,204.49
15.1,194.49019607843138,-220.01960784313727,307.45098039215685,290.63,-254.06,214.11
15.15,-165.98039215686273,117.94117647058823,255.50980392156862,-107.98,-74.19,-200.03
15.2,203.54901960784315,-181.98039215686273,184.07843137254903,-265.93,322.94,-271.33
15.25,72.01960784313725,89.98039215686275,71.54901960784314,68.94,-19.59,39.74
15.3,-218.50980392156862,-29.529411764705884,264.98039215686276,57.7,-135.13,30.01
15.35,193.50980392156862,52.0,-297.03921568627453,-239.85,-199.91,81.22
15.4,201.0,-231.0392156862745,-203.0,-133.6,90.47,-125.73
15.45,72.01960784313725,-187.9607843137255,-105.47058823529412,-113.37,196.45,-37.88
15.5,34.509803921568626,95.49019607843137,-129.49019607843138,322.47,133.31,102.85
15.55,11.0,291.4901960784314,145.47058823529412,-112.88,-188.92,236.06
15.6,-298.5098039215686,-24.019607843137255,-59.05882352941177,309.11,231.27,-321.09
15.65,-108.49019607843137,139.45098039215685,203.98039215686273,284.61,-118.68,-116.24
15.7,200.5686274509804,-176.0,-177.94117647058823,314.84,130.34,304.69
15.75,92.54901960784314,248.52941176470588,-28.431372549019606,84.02,160.19,-73.61
15.8,42.0,-23.54901960784314,113.01960784313725,160.43,-85.95,25.11
15.85,186.0,-296.5098039215686,-235.0392156862745,324.93,-157.56,87.31
15.9,-220.49019607843138,264.0,33.568627450980394,91.06,19.35,-108.65
15.95,-45.490196078431374,-209.47058823529412,260.03921568627453,-16.28,131.7,-96.19
16.0,-283.4901960784314,-105.49019607843137,-198.47058823529412,211.49,213.29,-0.74
16.05,-290.0,-94.0,-92.50980392156863,-208.71,-65.83,154.51
16.1,163.49019607843138,-307.52941176470586,106.45098039215686,1.74,273.1,286.04
16.15,42.0,101.47058823529412,153.45098039215685,-290.15,-207.61,58.61
16.2,-107.94117647058823,259.96078431372547,186.52941176470588,-257.78,-6.01,-324.18
16.25,-171.94117647058823,297.52941176470586,237.05882352941177,-185.57,309.75,-177.11
16.3,216.01960784313727,101.47058823529412,-313.4901960784314,-69.65,40.07,6.14
16.35,-163.0,-138.01960784313727,-154.54901960784315,221.68,-200.79,78.7
16.4,226.49019607843138,19.470588235294116,-136.09803921568627,275.79,-96.0,-54.05
16.45,170.0,30.49019607843137,52.01960784313726,-141.93,126.73,-183.62
16.5,-149.98039215686273,-176.47058823529412,-275.47058823529414,-90.65,227.64,-49.78
16.55,240.50980392156862,297.0,175.01960784313727,-211.75,110.81,114.64
16.6,201.0,-127.52941176470588,15.490196078431373,-148.3,-227.14,203.3
16.65,-131.0,46.490196078431374,217.94117647058823,230.88,283.04,308.12
16.7,104.01960784313725,-45.05882352941177,-15.509803921568627,166.41,-96.24,-133.88
16.75,-295.96078431372547,-214.50980392156862,99.05882352941177,-291.62,157.18,-303.7
16.8,-286.47058823529414,232.0,237.05882352941177,-23.8,125.4,-43.65
16.85,-11.509803921568627,297.47058823529414,289.0,91.65,-38.88,52.24
16.9,122.0,275.4901960784314,-308.54901960784315,-298.65,-203.55,5.41
16.95,81.50980392156863,-198.50980392156862,46.490196078431374,-78.44,78.26,-145.47
17.0,208.50980392156862,221.0392156862745,-167.47058823529412,-38.05,162.12,-92.97
17.05,311.01960784313724,297.0,-13.470588235294118,321.32,221.93,68.55
17.1,113.50980392156863,-116.50980392156863,-86.98039215686275,-154.07,-28.2,157.41
17.15,-266.5098039215686,-51.509803921568626,-231.54901960784315,-94.61,-283.81,250.02
17.2,186.0,177.49019607843138,53.470588235294116,-267.78,-186.82,35.26
17.25,-64.47058823529412,276.4313725490196,113.01960784313725,-141.26,-50.85,-292.33
17.3,12.549019607843137,243.01960784313727,107.07843137254902,-318.22,261.31,-307.93
17.35,-86.98039215686275,215.0,317.54901960784315,13.11,32.9,16.75
17.4,154.0,-143.52941176470588,-174.0392156862745,216.04,-236.52,31.17
17.45,99.49019607843137,25.50980392156863,215.49019607843138,-195.96,-151.72,-81.59
17.5,281.0,220.98039215686273,239.50980392156862,-126.81,113.15,-66.12
17.55,152.01960784313727,-160.47058823529412,152.0392156862745,-128.24,166.91,-68.82
17.6,177.50980392156862,-149.50980392156862,190.01960784313727,-322.63,230.02,82.93
17.65,-140.49019607843138,232.47058823529412,-251.0392156862745,-213.68,-116.82,255.59
17.7,147.49019607843138,171.98039215686273,133.9607843137255,-326.51,306.73,224.51
17.75,-245.98039215686273,-262.5686274509804,25.96078431372549,227.56,-128.55,-163.95
17.8,-314.94117647058823,319.5098039215686,99.05882352941177,-156.1,84.35,-296.04
17.85,-133.98039215686273,-165.50980392156862,237.05882352941177,-188.76,128.13,-90.83
17.9,-195.0,95.49019607843137,-249.0,-72.63,-114.58,38.9
17.95,258.4901960784314,242.49019607843138,-4.03921568627451,232.46,-155.67,136.27
18.0,320.5098039215686,226.49019607843138,196.0,91.34,9.97,-131.05
18.05,-124.49019607843137,-279.98039215686276,-270.98039215686276,-97.02,140.66,-157.68
18.1,-236.49019607843138,-50.98039215686274,-305.47058823529414,-241.5,196.87,-65.56
18.15,97.50980392156863,-198.50980392156862,-95.0,259.23,58.73,164.2
18.2,115.49019607843137,318.98039215686276,-223.52941176470588,75.55,239.53,-292.85
18.25,170.0,308.96078431372547,-274.05882352941177,-136.95,-248.28,18.04
18.3,9.568627450980392,155.98039215686273,17.529411764705884,-210.67,-91.62,-239.9
18.35,155.54901960784315,47.01960784313726,-254.94117647058823,-197.93,229.49,296.78
18.4,27.0,-269.01960784313724,186.52941176470588,63.62,-1.81,59.21
18.45,-290.0,199.47058823529412,-231.54901960784315,143.73,-120.32,150.06
18.5,-68.0,285.98039215686276,291.45098039215685,-224.45,-135.41,-67.84
18.55,74.0,-307.0,-98.49019607843137,-194.15,121.31,-181.17
18.6,57.01960784313726,308.01960784313724,-101.98039215686275,-75.99,107.97,-106.23
18.65,200.01960784313727,-84.50980392156863,186.52941176470588,-311.08,181.12,24.24
18.7,-52.0,155.98039215686273,68.47058823529412,-107.14,-209.33,310.64
18.75,99.49019607843137,144.9607843137255,-59.05882352941177,203.41,317.2,-310.91
18.8,-165.98039215686273,-246.5686274509804,-119.01960784313725,-207.9,-152.14,-198.45
18.85,305.05882352941177,-203.49019607843138,-262.96078431372547,241.87,16.27,296.12
18.9,-162.45098039215685,-45.0,-97.45098039215686,-21.39,58.27,33.66
18.95,-114.01960784313725,-33.568627450980394,-187.0,43.77,-107.02,105.19
19.0,27.0,30.49019607843137,22.470588235294116,-156.24,-180.91,49.96
19.05,-172.49019607843138,-13.0,-175.49019607843138,3.42,17.64,-4.0
19.1,72.01960784313725,154.5686274509804,-247.9607843137255,-135.94,124.14,-77.88
19.15,35.490196078431374,63.01960784313726,-290.47058823529414,-142.14,176.82,4.67
19.2,-243.0,-94.52941176470588,310.98039215686276,-257.74,26.35,157.55
19.25,233.0,79.49019607843137,107.45098039215686,-157.47,-309.36,266.09
19.3,106.0,204.98039215686273,-154.54901960784315,-154.03,288.22,115.31
19.35,197.58823529411765,-219.54901960784315,301.5098039215686,-306.04,-56.24,-305.87
19.4,308.03921568627453,-7.96078431372549,114.05882352941177,-260.26,252.73,-209.76
19.45,256.5098039215686,46.490196078431374,106.03921568627452,-1.4,63.77,18.85
19.5,-211.0,-235.54901960784315,268.47058823529414,12.27,-201.38,108.1
19.55,-154.50980392156862,-192.0,234.98039215686273,298.71,-114.2,-19.4
19.6,-68.0,-258.0,-127.03921568627452,-83.09,82.46,-149.28
19.65,120.01960784313725,-45.470588235294116,14.03921568627451,-268.35,193.41,-32.73
19.7,193.50980392156862,46.490196078431374,-117.98039215686275,-128.94,171.74,99.1
19.75,233.0,-280.03921568627453,-192.52941176470588,-135.98,-214.3,240.29
19.8,99.49019607843137,313.47058823529414,2.9411764705882355,192.0,301.52,-312.41
19.85,317.52941176470586,-78.05882352941177,-64.0,-22.47,-113.01,-300.69
19.9,149.0392156862745,-165.50980392156862,-82.45098039215686,-199.75,123.97,-315.56
19.95,-6.980392156862745,-290.0,-185.9607843137255,38.77,111.61,-28.18
20.0,-131.0,19.470588235294116,243.0,312.71,120.75,44.08
20.05,-250.50980392156862,-187.01960784313727,210.9607843137255,256.01,-122.84,92.7
20.1,-75.50980392156863,-247.0392156862745,-61.509803921568626,-262.08,-7.83,-110.19
20.15,-116.0,232.0,289.0,-97.55,134.15,-124.4
20.2,231.01960784313727,68.05882352941177,306.03921568627453,-302.68,207.76,-45.37
20.25,129.50980392156862,193.49019607843138,258.0,235.6,-5.98,150.41
20.3,-218.50980392156862,-296.03921568627453,-135.05882352941177,113.88,272.47,288.31
20.35,-188.49019607843138,210.9607843137255,-31.54901960784314,-47.39,-246.74,-76.76
20.4,51.05882352941177,134.47058823529412,109.52941176470588,286.6,-97.78,-279.1
20.45,73.56862745098039,221.0392156862745,268.05882352941177,-48.2,252.49,-246.72
20.5,-117.98039215686275,-280.03921568627453,117.54901960784314,-250.22,99.33,94.69
20.55,35.490196078431374,-312.03921568627453,307.45098039215685,-273.24,-218.01,107.05
20.6,-18.019607843137255,40.98039215686274,22.470588235294116,62.18,16.1,-125.09
20.65,224.50980392156862,248.0,-258.01960784313724,-131.57,13.33,-180.82
20.7,142.52941176470588,-148.98039215686273,109.52941176470588,-197.47,176.54,-109.24
20.75,161.50980392156862,166.47058823529412,-174.0392156862745,298.11,136.18,90.42
20.8,-218.50980392156862,-155.01960784313727,268.47058823529414,-18.1,-140.34,246.17
20.85,35.490196078431374,-133.50980392156862,207.47058823529412,-220.95,-313.52,219.33
20.9,-236.49019607843138,237.45098039215685,-129.49019607843138,114.72,-85.39,-182.36
20.95,67.05882352941177,139.50980392156862,-243.4313725490196,-244.93,141.26,323.38
21.0,-9.96078431372549,-94.0,217.5686274509804,31.14,136.36,-42.5
21.05,-123.50980392156863,-29.058823529411764,-230.50980392156862,64.25,-4.3,71.52
21.1,170.0,-214.50980392156862,-139.54901960784315,-90.96,-190.04,108.94
21.15,-267.4901960784314,-187.01960784313727,133.9607843137255,-124.53,60.3,0.51
21.2,-179.0,209.54901960784315,152.0392156862745,-22.58,130.93,-134.06
21.25,184.01960784313727,-100.50980392156863,94.52941176470588,325.59,195.86,52.73
21.3,145.50980392156862,-78.0,120.0,-210.11,-20.82,158.43
21.35,226.49019607843138,-198.50980392156862,56.96078431372549,-14.74,303.13,277.53
21.4,81.50980392156863,-18.03921568627451,179.9607843137255,-172.27,300.26,-10.16
21.45,-135.41176470588235,19.470588235294116,-178.98039215686273,-224.95,-155.78,-303.28
21.5,258.05882352941177,123.03921568627452,-39.94117647058823,-304.85,307.93,-157.61
21.55,120.01960784313725,13.96078431372549,-290.47058823529414,-115.05,210.42,-0.53
21.6,97.50980392156863,-29.529411764705884,199.45098039215685,-250.35,-240.51,169.07
21.65,-241.01960784313727,220.98039215686273,-67.07843137254902,-79.24,-87.6,-147.04
21.7,-4.0,150.0,270.5098039215686,-72.56,77.31,-164.44
21.75,57.01960784313726,95.54901960784314,-86.98039215686275,-183.37,144.2,-127.06
21.8,-61.490196078431374,242.49019607843138,270.5098039215686,-290.08,105.31,44.61
21.85,74.0,269.98039215686276,280.98039215686276,-146.37,298.19,-319.51
21.9,-225.01960784313727,264.47058823529414,-282.078431372549,-290.99,-312.75,291.95
21.95,-32.470588235294116,85.94117647058823,95.98039215686275,306.06,-161.13,-209.48
22.0,146.05882352941177,194.01960784313727,-193.94117647058823,142.19,105.73,-299.26
22.05,-120.96078431372548,243.01960784313727,-239.94117647058823,304.84,76.54,5.34
22.1,313.0,-23.07843137254902,-175.49019607843138,303.68,-20.75,149.05
22.15,-84.0,24.980392156862745,-174.07843137254903,-188.47,-266.62,101.83
22.2,216.01960784313727,-280.5098039215686,-283.4901960784314,-21.98,-58.16,-95.14
22.25,-315.4901960784314,138.5686274509804,124.52941176470588,-27.13,44.87,-168.53
22.3,168.01960784313727,210.01960784313727,-151.47058823529412,324.22,213.15,-2.74
22.35,2.5098039215686274,-94.52941176470588,73.0,-36.09,-6.15,214.32
22.4,-27.50980392156863,-219.54901960784315,218.98039215686273,-38.47,-310.97,-295.43
22.45,201.0,85.47058823529412,-18.0,-269.67,-232.11,128.71
22.5,22.03921568627451,291.96078431372547,-9.980392156862745,-35.14,-145.98,-261.42
22.55,12.549019607843137,-301.96078431372547,-177.94117647058823,74.81,251.96,286.8
22.6,-257.45098039215685,-17.980392156862745,-20.45098039215686,20.67,93.97,9.43
22.65,-75.50980392156863,129.4313725490196,-292.5098039215686,-168.88,-63.8,126.86
22.7,-27.50980392156863,199.47058823529412,164.9607843137255,-143.15,-290.35,212.92
22.75,177.50980392156862,117.0,215.49019607843138,85.14,-18.16,-40.4
22.8,-302.47058823529414,301.5686274509804,98.01960784313725,-164.08,113.57,-130.98
22.85,-229.98039215686273,210.01960784313727,244.0392156862745,169.0,256.72,8.49
22.9,34.509803921568626,-155.01960784313727,-213.47058823529412,303.43,-167.22,302.24
22.95,76.98039215686275,19.470588235294116,107.45098039215686,74.01,231.55,-240.87
23.0,-156.49019607843138,3.9411764705882355,183.45098039215685,-101.29,-266.17,-128.28
23.05,-186.94117647058823,24.980392156862745,-55.98039215686274,-179.8,-60.58,258.98
23.1,102.03921568627452,-209.47058823529412,-113.45098039215686,249.64,252.98,-228.1
23.15,304.5098039215686,133.0,-247.9607843137255,49.23,50.36,74.71
23.2,186.0,-176.05882352941177,318.96078431372547,122.31,-207.05,125.88
23.25,-250.50980392156862,281.0,264.98039215686276,11.45,-106.99,-120.2
23.3,256.5098039215686,237.50980392156862,-310.0,-73.75,99.78,-185.82
23.35,-181.98039215686273,188.0392156862745,106.03921568627452,312.15,218.33,-19.99
23.4,57.01960784313726,46.490196078431374,129.01960784313727,-301.04,144.27,109.71
23.45,-259.0,-160.52941176470588,95.98039215686275,-157.08,-204.71,-293.2
23.5,-177.01960784313727,62.96078431372549,214.45098039215685,-264.46,296.06,128.5
23.55,-32.470588235294116,64.43137254901961,-216.54901960784315,-265.76,-200.93,-249.14
23.6,83.05882352941177,199.52941176470588,52.05882352941177,100.4,231.24,325.62
23.65,-308.98039215686276,-290.0,-67.45098039215686,112.27,76.58,36.63
23.7,178.49019607843138,69.41176470588235,-104.01960784313725,-75.18,-147.73,47.2
23.75,-161.01960784313727,-13.0,195.9607843137255,-69.89,-232.78,92.45
23.8,110.52941176470588,237.50980392156862,316.5098039215686,-94.61,28.63,-283.12
23.85,-267.4901960784314,-291.94117647058823,-301.98039215686276,-113.82,121.52,-120.86
23.9,253.52941176470588,112.01960784313725,167.0392156862745,281.24,269.81,3.98
23.95,247.01960784313727,-286.01960784313724,101.50980392156863,260.8,-116.33,289.12
24.0,203.98039215686273,62.96078431372549,-239.5686274509804,-21.32,234.77,-211.12
24.05,27.0,166.94117647058823,-139.58823529411765,129.26,-171.84,-217.08
24.1,-310.4117647058824,275.4901960784314,78.52941176470588,97.81,5.11,152.3
24.15,-43.94117647058823,-164.98039215686273,209.54901960784315,-36.47,299.0,-190.2
24.2,-315.4901960784314,58.92156862745098,239.50980392156862,102.29,-275.79,234.87
24.25,147.49019607843138,-165.0392156862745,-28.058823529411764,-227.5,-274.11,-36.83
24.3,-6.980392156862745,-40.96078431372549,-101.98039215686275,220.1,-75.98,-161.74
24.35,197.0392156862745,-285.96078431372547,-59.470588235294116,-234.43,52.74,-210.57
24.4,-136.9607843137255,-241.47058823529412,-290.47058823529414,-171.85,208.56,-230.23
24.45,57.01960784313726,-252.54901960784315,140.52941176470588,18.39,277.48,126.54
24.5,-243.0,-149.0392156862745,123.49019607843137,-271.43,-122.39,-73.36
24.55,83.49019607843137,-94.52941176470588,-146.52941176470588,-124.01,-113.95,-132.09
24.6,231.01960784313727,-186.54901960784315,84.47058823529412,14.34,-308.17,142.5
24.65,-41.96078431372549,-311.5686274509804,169.49019607843138,-36.16,237.99,110.86
24.7,-243.0,193.49019607843138,-107.50980392156863,-104.9,175.13,-76.13
24.75,-213.98039215686273,-2.5098039215686274,166.0,-100.98,-138.1,-2.95
24.8,-283.4901960784314,107.50980392156863,129.01960784313727,-281.65,-79.16,-46.59
24.85,34.509803921568626,-307.0,313.01960784313724,-45.47,-113.99,-132.17
24.9,279.01960784313724,209.49019607843138,-110.0,118.85,-130.19,-161.78
24.95,-283.4901960784314,307.4901960784314,-264.0,10.24,-61.91,-186.35
25.0,231.01960784313727,-318.01960784313724,-279.0,162.11,-143.04,-139.24
25.05,240.50980392156862,-269.01960784313724,212.0,-7.18,-133.69,-30.04
25.1,224.50980392156862,8.980392156862745,73.0,-38.5,-131.03,-20.31
25.15,288.5098039215686,128.49019607843138,-141.0,157.84,-152.73,-47.64
25.2,-220.49019607843138,302.98039215686276,289.0,129.14,-50.64,-4.7
25.25,295.01960784313724,-57.01960784313726,178.50980392156862,-311.67,-44.72,70.26
25.3,145.50980392156862,-155.01960784313727,-187.0,-215.39,-24.25,35.02
25.35,-13.490196078431373,291.4901960784314,27.0,69.78,-17.53,-14.36
25.4,-84.0,-133.45098039215685,49.98039215686274,-304.53,37.24,52.76
25.45,-181.98039215686273,-236.01960784313727,116.50980392156863,90.01,63.87,9.92
25.5,-149.98039215686273,286.5098039215686,43.0,83.11,-40.84,95.67
25.55,-179.0,275.4901960784314,39.509803921568626,35.13,42.73,52.76
25.6,-29.49019607843137,281.0,-36.490196078431374,-22.02,-0.94,44.92
25.65,272.5098039215686,166.0,-83.49019607843137,-14.49,20.02,34.46
25.7,224.50980392156862,166.0,-144.49019607843138,33.27,17.64,20.81
25.75,113.50980392156863,-182.50980392156862,267.01960784313724,147.09,41.54,43.21
25.8,-140.49019607843138,-2.5098039215686274,-267.4901960784314,159.76,-3.67,58.22
25.85,-61.490196078431374,275.4901960784314,313.01960784313724,92.32,-10.88,92.56
25.9,-77.49019607843137,30.49019607843137,-313.4901960784314,83.64,-22.29,105.79
25.95,288.5098039215686,-165.50980392156862,-52.490196078431374,141.42,-36.74,102.57
26.0,-116.0,-2.5098039215686274,-144.49019607843138,74.96,-19.94,87.34
26.05,-36.0,281.0,-206.49019607843138,37.89,3.64,41.07
26.1,-84.0,215.0,-206.49019607843138,12.52,-5.59,35.02
26.15,-243.0,52.0,-175.49019607843138,1.42,-6.85,19.48
26.2,-243.0,68.0,-144.49019607843138,17.24,-9.93,20.67
26.25,-275.0,133.0,-252.49019607843138,3.66,-15.85,17.69
26.3,-306.0,101.0,-236.49019607843138,10.77,-18.89,23.22
26.35,-290.0,199.0,-283.4901960784314,-3.47,-3.95,-3.51
26.4,-227.0,68.0,282.01960784313724,7.55,0.17,9.85
26.45,-211.0,117.0,82.01960784313725,6.43,11.86,-46.73
26.5,320.5098039215686,19.0,267.01960784313724,3.14,7.73,-11.59
26.55,224.50980392156862,84.0,267.01960784313724,-26.78,23.24,-73.47
26.6,49.509803921568626,183.0,221.01960784313727,15.91,3.08,-56.74
26.65,288.5098039215686,150.0,190.01960784313727,-17.01,36.43,-44.39
26.7,208.50980392156862,117.0,-221.49019607843138,7.3,26.07,-53.28
26.75,272.5098039215686,281.0,-160.49019607843138,-38.26,38.01,-23.84
26.8,272.5098039215686,19.0,-160.49019607843138,-12.32,28.31,-27.76
26.85,-179.0,117.0,-283.4901960784314,-13.34,23.94,-12.33
26.9,-275.0,3.0,-206.49019607843138,4.43,23.34,-9.04
26.95,-68.0,-62.0,-190.49019607843138,-14.18,24.95,23.29
27.0,-306.0,-29.0,-298.4901960784314,-3.75,25.86,61.09
27.05,-195.0,-45.0,252.01960784313727,-7.25,30.34,37.43
27.1,-163.0,-45.0,313.01960784313724,1.49,29.5,69.07
27.15,-116.0,52.0,221.01960784313727,-21.04,34.37,78.21
27.2,-84.0,199.0,113.01960784313725,-35.88,6.19,89.3
27.25,-4.0,-133.50980392156862,-40.98039215686274,55.08,-32.4,78.35
27.3,11.0,232.0,236.01960784313727,36.21,-16.76,96.16
27.35,-100.0,313.0,-298.4901960784314,42.9,-17.56,128.61
27.4,-116.0,297.0,313.01960784313724,15.84,-18.3,74.74
27.45,49.509803921568626,117.0,-206.49019607843138,-15.79,-3.21,-1.37
27.5,-68.0,-78.0,-221.49019607843138,-29.51,-8.95,35.65
27.55,-84.0,-45.0,-236.49019607843138,11.15,-13.36,26.48
27.6,-36.0,133.0,-298.4901960784314,-2.07,-19.84,1.8
27.65,-52.0,19.0,221.01960784313727,-47.32,-2.83,-35.85
27.7,-179.0,-78.0,282.01960784313724,-23.56,8.57,-83.83
27.75,-195.0,68.0,82.01960784313725,-18.59,15.57,-110.01
27.8,-306.0,297.0,-9.980392156862745,19.38,-17.74,-105.11
27.85,-290.0,-67.50980392156863,144.01960784313727,-26.15,14.63,-94.05
27.9,-259.0,166.0,-221.49019607843138,2.26,19.39,-108.33
27.95,-163.0,-312.5098039215686,-267.4901960784314,11.33,12.28,-92.23
28.0,-227.0,215.0,-236.49019607843138,-12.67,23.27,-79.18
28.05,-179.0,35.0,-98.49019607843137,-16.91,31.46,-89.29
28.1,-163.0,101.0,-160.49019607843138,-29.37,22.85,-90.24
28.15,-195.0,-29.0,-160.49019607843138,-65.84,17.15,-61.61
28.2,-147.0,-29.0,-221.49019607843138,-12.04,1.82,4.53
28.25,-52.0,35.0,-298.4901960784314,0.41,-19.84,24.59
28.3,-36.0,166.0,190.01960784313727,-20.9,-19.94,29.94
28.35,-68.0,166.0,52.01960784313726,-29.37,-14.27,57.73
28.4,-227.0,264.0,-40.98039215686274,-103.15,-2.79,43.49
28.45,-259.0,-45.0,221.01960784313727,-67.48,9.87,-23.56
28.5,-147.0,150.0,221.01960784313727,-99.19,48.86,-77.25
28.55,-227.0,133.0,-267.4901960784314,-84.18,56.49,-110.85
28.6,-116.0,264.0,-36.490196078431374,-106.58,60.62,-122.33
28.65,-100.0,-133.50980392156862,178.50980392156862,30.19,23.55,-77.21
28.7,138.0,-8.019607843137255,-98.49019607843137,-50.26,-26.66,-51.77
28.75,-52.0,-100.50980392156863,9.509803921568627,-254.52,44.27,-72.14
28.8,224.50980392156862,150.0,101.50980392156863,-262.05,90.3,-88.66
28.85,-290.0,-67.50980392156863,178.50980392156862,-123.27,86.73,-102.87
28.9,-147.0,-286.01960784313724,193.50980392156862,32.4,50.78,-143.65
28.95,-275.0,128.49019607843138,270.5098039215686,21.27,88.13,-235.52
29.0,-252.49019607843138,-84.50980392156863,-187.0,71.04,36.08,-193.35
29.05,-172.49019607843138,160.49019607843138,101.50980392156863,76.74,-25.65,-156.32
29.1,34.509803921568626,264.0,86.50980392156863,-28.35,-46.23,-157.4
29.15,-299.4901960784314,133.0,224.50980392156862,-40.18,-13.26,-114.98
29.2,72.01960784313725,-35.509803921568626,86.50980392156863,-35.0,-20.96,-79.6
29.25,279.01960784313724,-116.50980392156863,147.50980392156862,-101.47,-27.43,-61.26
29.3,-77.49019607843137,297.0,55.509803921568626,-113.61,-16.44,-55.62
29.35,-61.490196078431374,-231.50980392156862,-6.490196078431373,-41.69,-16.97,-52.93
29.4,18.50980392156863,-100.50980392156863,39.509803921568626,1.21,-37.3,-21.25
29.45,97.50980392156863,-231.50980392156862,-144.49019607843138,24.73,-33.59,4.74
29.5,-77.49019607843137,-182.50980392156862,-144.49019607843138,4.75,-21.06,15.45
29.55,-156.49019607843138,-198.50980392156862,-36.490196078431374,14.16,-45.74,12.06
29.6,2.5098039215686274,-280.5098039215686,-6.490196078431373,60.78,-73.28,-26.36
29.65,-283.4901960784314,-100.50980392156863,-144.49019607843138,142.86,-24.91,17.38
29.7,72.01960784313725,95.49019607843137,-113.49019607843137,182.62,-29.29,86.22
29.75,-204.49019607843138,-165.50980392156862,163.50980392156862,116.54,5.04,77.61
29.8,311.01960784313724,199.0,-218.0,51.4,68.25,46.36
29.85,72.01960784313725,199.0,-233.0,9.33,92.99,42.4
29.9,136.01960784313727,281.0,-95.0,-0.28,64.61,47.44
29.95,247.01960784313727,232.0,-18.0,-6.9,23.66,49.44
30.0,-315.4901960784314,232.0,-79.0,51.05,-18.51,38.06
30.05,-220.49019607843138,-296.5098039215686,-126.0,120.98,-38.25,17.55
30.1,-283.4901960784314,-231.50980392156862,-172.0,124.03,-37.62,17.66
30.15,-315.4901960784314,297.0,-233.0,70.86,-20.08,30.78
30.2,247.01960784313727,199.0,-187.0,-34.76,13.02,44.61
30.25,104.01960784313725,68.0,-264.0,-65.42,18.55,83.11
30.3,-252.49019607843138,117.0,86.50980392156863,-13.48,5.56,118.07
30.35,-188.49019607843138,248.0,39.509803921568626,37.09,-2.2,110.9
30.4,-204.49019607843138,264.0,-129.49019607843138,-15.16,3.39,76.04
30.45,-172.49019607843138,101.0,-129.49019607843138,-35.98,-9.51,47.3
30.5,34.509803921568626,84.0,-36.490196078431374,-36.3,-29.57,19.44
30.55,145.50980392156862,183.0,70.50980392156863,-4.55,-53.93,11.36
30.6,177.50980392156862,-280.5098039215686,70.50980392156863,36.25,-82.8,16.36
30.65,304.5098039215686,-312.5098039215686,147.50980392156862,83.04,-127.01,10.52
30.7,240.50980392156862,-231.50980392156862,209.50980392156862,146.46,-163.16,-48.31
30.75,-45.490196078431374,-51.509803921568626,116.50980392156863,116.19,-131.1,-106.76
30.8,-70.98039215686275,-67.50980392156863,147.50980392156862,134.88,-95.86,-80.82
30.85,231.01960784313727,-116.50980392156863,86.50980392156863,162.21,-71.18,-41.66
30.9,-220.49019607843138,-214.50980392156862,316.5098039215686,126.65,-35.17,-30.18
30.95,-204.49019607843138,297.0,-218.0,119.93,-9.97,-49.32
31.0,-299.4901960784314,-280.5098039215686,-249.0,97.88,42.66,-68.47
31.05,-38.98039215686274,-198.50980392156862,-156.0,-20.41,70.14,-34.97
31.1,-38.98039215686274,-296.5098039215686,73.0,-2.21,22.71,45.27
31.15,295.01960784313724,-214.50980392156862,-187.0,99.46,-15.01,106.8
31.2,279.01960784313724,-182.50980392156862,-172.0,147.93,-25.61,114.5
31.25,295.01960784313724,-165.50980392156862,-95.0,112.3,-15.92,111.32
31.3,295.01960784313724,281.0,-95.0,64.91,-4.37,98.79
31.35,295.01960784313724,248.0,-95.0,44.51,-3.67,86.36
31.4,295.01960784313724,281.0,-126.0,61.17,-5.14,80.17
31.45,231.01960784313727,281.0,-172.0,47.45,0.28,78.28
31.5,184.01960784313727,232.0,-141.0,22.63,-3.18,67.74
31.55,216.01960784313727,199.0,-126.0,22.04,-13.75,46.15
31.6,-315.4901960784314,248.0,-218.0,65.26,-17.11,28.19
31.65,-252.49019607843138,281.0,-279.0,55.88,-1.92,15.07
31.7,-299.4901960784314,150.0,-264.0,-2.42,19.14,1.87
31.75,263.01960784313724,101.0,-295.0,-43.16,14.94,-4.91
31.8,-108.49019607843137,133.0,270.5098039215686,19.2,-9.51,-27.45
31.85,-283.4901960784314,313.0,70.50980392156863,36.95,-9.72,-26.75
31.9,216.01960784313727,264.0,-36.490196078431374,36.25,-28.06,-14.36
31.95,-140.49019607843138,117.0,39.509803921568626,37.12,-32.96,-39.63
32.0,-13.490196078431373,117.0,-6.490196078431373,68.55,-38.6,-63.92
32.05,-45.490196078431374,248.0,-98.49019607843137,80.98,-35.9,-74.91
32.1,-156.49019607843138,281.0,-83.49019607843137,65.72,-14.2,-47.71
32.15,-204.49019607843138,264.0,39.509803921568626,35.34,-0.38,-24.09
32.2,-140.49019607843138,248.0,70.50980392156863,32.96,11.69,0.96
32.25,-172.49019607843138,281.0,55.509803921568626,23.89,6.68,17.87
32.3,-172.49019607843138,264.0,193.50980392156862,-2.1,1.08,16.92
32.35,-236.49019607843138,232.0,163.50980392156862,37.05,-14.87,16.29
32.4,-172.49019607843138,-312.5098039215686,86.50980392156863,92.67,-23.51,19.79
32.45,311.01960784313724,-182.50980392156862,132.50980392156862,47.69,0.98,47.72
32.5,72.01960784313725,264.0,178.50980392156862,43.46,8.15,105.82
32.55,311.01960784313724,297.0,178.50980392156862,110.24,-8.6,139.95
32.6,-315.4901960784314,313.0,239.50980392156862,84.16,26.88,127.28
32.65,120.01960784313725,248.0,301.5098039215686,25.5,40.07,111.67
32.7,104.01960784313725,166.0,-187.0,15.14,17.04,89.3
32.75,-299.4901960784314,183.0,-203.0,49.55,0.59,64.0
32.8,-220.49019607843138,248.0,-187.0,86.58,-14.03,45.66
32.85,-188.49019607843138,281.0,-203.0,73.63,-11.75,27.6
32.9,-204.49019607843138,264.0,-280.0,37.58,-3.21,26.58
32.95,-252.49019607843138,117.0,-264.0,-0.04,-0.83,20.21
33.0,311.01960784313724,117.0,316.5098039215686,-18.9,-3.98,9.4
33.05,295.01960784313724,150.0,224.50980392156862,9.44,-20.82,-22.27
33.1,231.01960784313727,183.0,132.50980392156862,3.03,-18.12,-65.91
33.15,72.01960784313725,117.0,101.50980392156863,-9.52,-12.8,-49.36
33.2,279.01960784313724,166.0,-21.49019607843137,-1.23,-19.14,-8.09
33.25,2.5098039215686274,52.0,-36.490196078431374,-63.77,15.85,-24.16
33.3,-220.49019607843138,3.0,101.50980392156863,-101.33,31.53,-49.39
33.35,-140.49019607843138,101.0,147.50980392156862,-74.73,22.43,-56.04
33.4,-29.49019607843137,215.0,162.50980392156862,-63.95,4.86,-73.37
33.45,-45.490196078431374,215.0,193.50980392156862,-45.78,-15.57,-87.47
33.5,-77.49019607843137,183.0,132.50980392156862,-23.17,-25.33,-92.62
33.55,-124.49019607843137,281.0,132.50980392156862,-8.65,-30.62,-74.91
33.6,-108.49019607843137,248.0,116.50980392156863,10.49,-38.39,-50.37
33.65,-124.49019607843137,297.0,55.509803921568626,-15.82,-29.18,-35.32
33.7,-267.4901960784314,232.0,9.509803921568627,-28.56,-33.14,-32.42
33.75,88.01960784313725,297.0,-36.490196078431374,3.94,3.22,12.9
33.8,152.01960784313727,-198.50980392156862,-175.49019607843138,142.72,-16.06,76.95
33.85,-236.49019607843138,-182.50980392156862,-129.49019607843138,78.07,50.57,95.01
33.9,72.01960784313725,166.0,24.50980392156863,-2.14,85.19,110.27
33.95,247.01960784313727,150.0,193.50980392156862,-3.64,80.85,108.62
34.0,311.01960784313724,133.0,270.5098039215686,-23.73,82.25,97.98
34.05,-299.4901960784314,84.0,-295.0,-20.37,64.05,86.96
34.1,-283.4901960784314,166.0,-249.0,1.6,42.03,69.63
34.15,-236.49019607843138,183.0,-279.0,-3.4,23.34,46.29
34.2,-172.49019607843138,133.0,-203.0,-5.53,-1.57,4.57
34.25,-140.49019607843138,166.0,-264.0,12.48,-25.51,-40.92
34.3,-204.49019607843138,183.0,301.5098039215686,30.58,-38.95,-84.92
34.35,184.01960784313727,199.0,193.50980392156862,17.28,-27.99,-80.16
34.4,41.01960784313726,199.0,24.50980392156863,15.39,-53.37,-14.36
34.45,2.5098039215686274,52.0,-83.49019607843137,-37.49,-44.2,-16.95
34.5,-204.49019607843138,-127.0,70.50980392156863,-134.19,-3.46,-74.07
34.55,-172.49019607843138,35.0,163.50980392156862,-71.19,3.5,-99.41
34.6,2.5098039215686274,297.0,70.50980392156863,-77.81,-2.97,-96.75
34.65,-45.490196078431374,133.0,70.50980392156863,-79.45,-2.23,-104.31
34.7,-93.49019607843137,133.0,55.509803921568626,-74.03,-4.09,-91.46
34.75,-172.49019607843138,-296.5098039215686,55.509803921568626,-54.81,-11.58,-63.29
34.8,-236.49019607843138,264.0,101.50980392156863,-12.88,-26.17,-53.07
34.85,-252.49019607843138,-247.50980392156862,70.50980392156863,4.4,-32.33,-42.81
34.9,279.01960784313724,-312.5098039215686,9.509803921568627,10.35,-18.37,-26.33
34.95,72.01960784313725,-214.50980392156862,-83.49019607843137,36.67,8.78,32.18
35.0,200.01960784313727,-198.50980392156862,-83.49019607843137,86.44,13.96,98.93
35.05,279.01960784313724,313.0,9.509803921568627,70.2,51.31,135.01
35.1,200.01960784313727,133.0,101.50980392156863,48.78,67.02,139.74
35.15,247.01960784313727,101.0,147.50980392156862,8.98,75.6,126.58
35.2,279.01960784313724,3.0,-295.0,-24.92,74.76,104.39
35.25,311.01960784313724,84.0,-279.0,-34.13,53.23,76.0
35.3,-188.49019607843138,150.0,316.5098039215686,-7.49,27.93,39.36
35.35,-77.49019607843137,199.0,-295.0,33.34,6.96,6.42
35.4,-45.490196078431374,199.0,-310.0,35.44,1.26,-24.86
35.45,-299.4901960784314,183.0,316.5098039215686,-11.13,-9.09,-70.71
35.5,168.01960784313727,101.0,-279.0,-63.28,-14.73,-113.13
35.55,-6.980392156862745,150.0,-310.0,-8.47,-33.14,-60.87
35.6,-172.49019607843138,313.0,-37.490196078431374,21.13,-42.9,-20.38
35.65,-156.49019607843138,68.0,24.50980392156863,-76.16,-14.24,-47.99
35.7,-188.49019607843138,19.0,178.50980392156862,-97.55,-11.02,-82.92
35.75,2.5098039215686274,117.0,147.50980392156862,-62.3,-18.82,-110.54
35.8,-93.49019607843137,264.0,147.50980392156862,-10.26,-32.33,-116.94
35.85,-140.49019607843138,297.0,39.509803921568626,11.47,-42.76,-93.84
35.9,-156.49019607843138,264.0,-37.490196078431374,-5.04,-32.54,-69.83
35.95,-188.49019607843138,183.0,-6.490196078431373,-47.08,-17.84,-45.65
36.0,-252.49019607843138,199.0,39.509803921568626,-55.51,-12.1,-25.45
36.05,279.01960784313724,281.0,-6.490196078431373,-30.24,-5.42,-9.74
36.1,88.01960784313725,-296.5098039215686,-67.49019607843137,-11.17,25.51,35.68
36.15,136.01960784313727,-198.50980392156862,-52.490196078431374,89.59,10.6,105.65
36.2,-252.49019607843138,-231.50980392156862,24.50980392156863,72.93,44.69,136.69
36.25,168.01960784313727,183.0,116.50980392156863,42.02,68.18,134.94
36.3,216.01960784313727,166.0,193.50980392156862,-10.99,70.21,118.46
36.35,-315.4901960784314,68.0,286.5098039215686,-18.55,63.49,94.34
36.4,-236.49019607843138,101.0,-310.0,25.54,44.8,62.11
36.45,-188.49019607843138,166.0,-187.0,-23.14,32.9,33.79
36.5,-220.49019607843138,133.0,-279.0,-18.8,8.36,10.2
36.55,-140.49019607843138,166.0,-279.0,38.77,-8.74,-15.44
36.6,-252.49019607843138,199.0,286.5098039215686,6.18,-3.7,-51.25
36.65,216.01960784313727,101.0,286.5098039215686,-107.52,7.1,-101.72
36.7,88.01960784313725,3.0,193.50980392156862,-90.37,-5.03,-101.33
36.75,-315.4901960784314,281.0,116.50980392156863,58.23,-60.47,-59.93
36.8,65.50980392156863,-312.5098039215686,-190.49019607843138,-13.48,-19.31,-74.07
36.85,-283.4901960784314,19.0,-21.49019607843137,-65.07,-12.84,-89.78
36.9,-108.49019607843137,101.0,193.50980392156862,-78.16,-10.98,-102.94
36.95,-140.49019607843138,215.0,193.50980392156862,-55.23,-14.55,-101.79
37.0,-172.49019607843138,297.0,86.50980392156863,23.51,-36.5,-77.78
37.05,-108.49019607843137,-198.50980392156862,9.509803921568627,29.21,-29.36,-44.63
37.1,-188.49019607843138,-296.5098039215686,70.50980392156863,7.62,-15.39,-16.67
37.15,-236.49019607843138,264.0,24.50980392156863,-42.88,0.59,10.03
37.2,-283.4901960784314,232.0,101.50980392156863,-36.26,-5.07,22.14
37.25,152.01960784313727,-296.5098039215686,9.509803921568627,-15.09,26.32,50.38
37.3,72.01960784313725,-231.50980392156862,-6.490196078431373,56.51,8.85,99.94
37.35,279.01960784313724,-280.5098039215686,86.50980392156863,70.65,19.53,121.12
37.4,136.01960784313727,183.0,178.50980392156862,65.82,36.68,133.44
37.45,216.01960784313727,150.0,209.50980392156862,47.97,38.64,131.2
37.5,-315.4901960784314,101.0,316.5098039215686,0.13,40.98,107.19
37.55,-283.4901960784314,35.0,-279.0,-18.69,31.18,73.59
37.6,-188.49019607843138,84.0,-249.0,-10.68,8.85,29.94
37.65,-77.49019607843137,133.0,-249.0,6.92,-5.52,-14.81
37.7,-61.490196078431374,183.0,-264.0,46.47,-17.28,-58.84
37.75,-172.49019607843138,199.0,286.5098039215686,38.87,-15.46,-92.3
37.8,311.01960784313724,150.0,224.50980392156862,-20.97,-19.03,-126.04
37.85,-6.980392156862745,68.0,209.50980392156862,-86.17,5.81,-98.25
37.9,120.01960784313725,183.0,86.50980392156863,-0.46,-37.65,-33.33
37.95,-29.49019607843137,281.0,-52.490196078431374,-22.96,-6.89,-15.48
38.0,311.01960784313724,52.0,86.50980392156863,-118.93,20.37,-46.98
38.05,-61.490196078431374,101.0,255.50980392156862,-121.73,15.75,-68.29
38.1,2.5098039215686274,183.0,239.50980392156862,-78.4,7.1,-89.4
38.15,-13.490196078431373,-263.5098039215686,224.50980392156862,-3.19,-17.42,-74.8
38.2,-13.490196078431373,-165.50980392156862,162.50980392156862,13.18,-28.76,-43.2
38.25,-172.49019607843138,-231.50980392156862,101.50980392156863,-39.69,-21.17,2.26
38.3,-299.4901960784314,-263.5098039215686,101.50980392156863,-42.6,-25.19,36.03
38.35,-315.4901960784314,-149.50980392156862,86.50980392156863,3.94,-43.39,42.26
38.4,-315.4901960784314,-84.50980392156863,9.509803921568627,67.47,-24.81,43.42
38.45,88.01960784313725,46.490196078431374,-113.49019607843137,128.33,-28.06,84.61
38.5,-267.4901960784314,-149.50980392156862,70.50980392156863,132.64,-23.16,109.57
38.55,9.019607843137255,-280.5098039215686,224.50980392156862,76.5,7.38,141.63
38.6,9.019607843137255,232.0,270.5098039215686,-17.99,30.34,148.35
38.65,231.01960784313727,133.0,-79.0,-74.38,9.03,108.97
38.7,-61.490196078431374,84.0,-218.0,-125.65,-14.1,85.94
38.75,145.50980392156862,313.0,150.0,-60.94,15.12,22.21
38.8,18.50980392156863,-165.50980392156862,-18.0,-94.82,50.64,-12.64
38.85,34.509803921568626,-263.5098039215686,-49.0,-89.53,68.04,-24.47
38.9,-220.49019607843138,-51.509803921568626,-203.0,-91.53,10.95,-18.38
38.95,231.01960784313727,13.490196078431373,43.0,-41.86,-38.04,-16.74
39.0,72.01960784313725,111.49019607843137,166.0,1.49,-47.7,8.94
39.05,231.01960784313727,46.490196078431374,-3.0,-1.23,-67.51,42.09
39.1,34.509803921568626,-214.50980392156862,-79.0,-38.22,-34.19,57.35
39.15,-77.49019607843137,-133.50980392156862,-141.0,-31.19,-6.43,79.5
39.2,-45.490196078431374,291.4901960784314,-172.0,-51.73,23.1,90.6
39.25,97.50980392156863,-286.01960784313724,-249.0,-90.16,46.34,98.23
39.3,208.50980392156862,177.49019607843138,-264.0,-101.4,49.87,86.01
39.35,-211.0,111.49019607843137,-126.0,-83.41,53.79,53.99
39.4,-116.0,79.49019607843137,-49.0,-74.76,95.62,24.2
39.45,27.0,62.490196078431374,-95.0,-81.38,86.97,-5.71
39.5,-52.0,-67.50980392156863,289.0,-51.0,49.56,-35.85
39.55,-275.0,177.49019607843138,-184.50980392156862,28.02,21.03,-79.28
39.6,113.50980392156863,193.49019607843138,212.0,115.0,4.13,-147.78
39.65,-108.49019607843137,177.49019607843138,58.0,184.3,-5.0,-188.69
39.7,-283.4901960784314,177.49019607843138,273.0,-312.41,-103.73,-168.78
39.75,2.5098039215686274,160.49019607843138,196.0,-248.64,-149.79,-146.31
39.8,-252.49019607843138,-84.50980392156863,166.0,-204.89,-162.18,-97.73
39.85,247.01960784313727,111.49019607843137,227.0,-284.69,-124.84,-42.78
39.9,168.01960784313727,-198.50980392156862,243.0,283.7,-91.66,-9.53
39.95,263.01960784313724,297.0,320.0,252.51,-84.27,15.87
40.0,-315.4901960784314,-312.5098039215686,196.0,162.53,-57.88,19.65
40.05,311.01960784313724,183.0,89.0,124.62,-47.0,16.43
40.1,-299.4901960784314,313.0,-18.0,82.87,7.77,9.01
40.15,263.01960784313724,281.0,-80.0,17.73,86.2,-19.68
40.2,231.01960784313727,248.0,-218.0,-154.18,124.35,-21.64
40.25,152.01960784313727,133.0,58.0,-117.99,68.46,27.67
40.3,-101.98039215686275,-214.50980392156862,43.0,-43.86,42.49,125.95
40.35,-86.98039215686275,281.0,239.50980392156862,228.57,-11.82,207.04
40.4,295.01960784313724,226.49019607843138,255.50980392156862,313.69,14.07,201.58
40.45,72.01960784313725,-312.5098039215686,-18.0,171.56,65.13,146.95
40.5,-267.4901960784314,232.0,-172.0,149.54,69.96,128.43
40.55,-93.49019607843137,-280.5098039215686,209.50980392156862,116.5,51.13,124.58
40.6,-61.490196078431374,19.0,162.50980392156862,32.85,40.77,75.3
40.65,-156.49019607843138,286.5098039215686,-36.490196078431374,51.61,48.47,1.03
40.7,-77.49019607843137,-274.0,-36.490196078431374,-24.5,56.17,-52.75
40.75,97.50980392156863,-94.0,-236.49019607843138,35.27,-0.97,29.52
40.8,122.0,-155.01960784313727,-236.49019607843138,2.54,-22.71,114.43
40.85,201.0,-318.01960784313724,-83.49019607843137,-4.83,-30.86,140.61
40.9,-68.0,62.490196078431374,-98.49019607843137,-17.78,-14.17,118.46
40.95,177.50980392156862,101.0,-313.4901960784314,41.15,-10.88,84.02
41.0,-29.49019607843137,117.0,267.01960784313724,-5.01,-20.19,31.66
41.05,2.5098039215686274,-274.0,-236.49019607843138,1.7,-71.74,-71.93
41.1,193.50980392156862,-62.0,-67.49019607843137,-45.08,-105.41,-147.43
41.15,256.5098039215686,-94.0,178.50980392156862,30.37,-127.15,-131.22
41.2,177.50980392156862,128.49019607843138,24.50980392156863,48.57,-147.94,-70.32
41.25,129.50980392156862,193.49019607843138,24.50980392156863,-52.68,-146.19,-47.47
41.3,-13.490196078431373,-116.50980392156863,286.5098039215686,-100.1,-127.43,-53.14
41.35,-172.49019607843138,13.490196078431373,-264.0,-63.67,-122.56,-73.72
41.4,-299.4901960784314,62.490196078431374,-279.0,-4.87,-113.64,-80.79
41.45,216.01960784313727,30.49019607843137,239.50980392156862,105.06,-80.56,-54.68
41.5,136.01960784313727,30.49019607843137,163.50980392156862,223.43,-59.53,-9.21
41.55,104.01960784313725,-35.509803921568626,270.5098039215686,255.91,-35.55,36.73
41.6,104.01960784313725,-231.50980392156862,-279.0,203.72,-2.83,54.02
41.65,136.01960784313727,264.0,-187.0,157.77,21.42,29.49
41.7,231.01960784313727,248.0,-141.0,126.41,47.7,0.33
41.75,231.01960784313727,297.0,-172.0,81.64,74.86,-8.27
41.8,136.01960784313727,297.0,-49.0,10.1,75.04,0.12
41.85,136.01960784313727,248.0,166.0,-4.45,27.4,-0.25
41.9,184.01960784313727,281.0,104.0,-70.81,12.91,19.62
41.95,104.01960784313725,183.0,27.0,-41.55,-10.32,52.17
42.0,-267.4901960784314,117.0,-156.0,27.01,-1.81,71.7
42.05,-315.4901960784314,133.0,-218.0,28.86,37.55,83.25
42.1,184.01960784313727,-45.0,-249.0,32.19,19.42,110.41
42.15,247.01960784313727,-13.0,193.50980392156862,54.94,-8.64,107.08
42.2,-220.49019607843138,52.0,132.50980392156862,44.79,-10.95,56.44
42.25,-140.49019607843138,19.0,163.50980392156862,25.5,-16.34,1.91
42.3,-29.49019607843137,84.0,147.50980392156862,24.98,-13.19,-27.97
42.35,-77.49019607843137,166.0,178.50980392156862,26.83,-5.7,-40.92
42.4,-204.49019607843138,150.0,209.50980392156862,-8.16,0.45,-40.01
42.45,-204.49019607843138,150.0,224.50980392156862,1.95,-5.63,-30.98
42.5,-188.49019607843138,183.0,270.5098039215686,-44.8,5.14,-14.22
42.55,-299.4901960784314,183.0,209.50980392156862,-56.74,-14.66,-3.86
42.6,-236.49019607843138,281.0,270.5098039215686,-52.82,-47.17,-52.68
42.65,-188.49019607843138,-312.5098039215686,224.50980392156862,-8.58,-61.87,-100.84
42.7,-315.4901960784314,-100.50980392156863,86.50980392156863,118.04,-47.52,-80.72
42.75,136.01960784313727,128.49019607843138,39.509803921568626,179.43,-39.51,6.04
42.8,-220.49019607843138,-18.50980392156863,147.50980392156862,214.78,-55.26,78.17
42.85,-156.49019607843138,-263.5098039215686,-264.0,217.34,-32.51,93.99
42.9,263.01960784313724,281.0,-156.0,147.23,4.9,84.37
42.95,136.01960784313727,183.0,-172.0,26.48,22.29,64.45
43.0,57.01960784313726,52.0,-79.0,-16.84,0.31,38.27
43.05,263.01960784313724,133.0,12.0,22.0,-16.06,20.74
43.1,-252.49019607843138,297.0,-49.0,107.89,-5.84,25.29
43.15,-236.49019607843138,-280.5098039215686,-49.0,126.86,10.92,27.0
43.2,-204.49019607843138,215.0,-64.0,99.6,23.17,12.44
43.25,263.01960784313724,166.0,-110.0,2.33,43.08,-0.53
43.3,72.01960784313725,35.0,-33.0,-17.96,26.95,-22.72
43.35,9.019607843137255,133.0,-187.0,-80.61,27.61,-24.75
43.4,-117.98039215686275,3.0,-264.0,-68.11,3.39,1.77
43.45,295.01960784313724,117.0,193.50980392156862,27.25,-18.12,33.83
43.5,145.50980392156862,232.0,39.509803921568626,28.34,9.52,37.12
43.55,-29.49019607843137,35.0,209.50980392156862,-18.52,37.2,16.19
43.6,-236.49019607843138,35.0,301.5098039215686,-53.73,27.58,8.98
43.65,-204.49019607843138,52.0,270.5098039215686,-69.58,-4.79,-4.07
43.7,-108.49019607843137,84.0,132.50980392156862,-48.06,-7.2,-20.06
43.75,-172.49019607843138,215.0,116.50980392156863,12.45,-2.83,-39.21
43.8,-220.49019607843138,281.0,224.50980392156862,19.34,0.24,-49.78
43.85,-252.49019607843138,166.0,301.5098039215686,-20.3,-0.13,-46.73
43.9,-188.49019607843138,133.0,255.50980392156862,-55.9,3.95,-39.94
43.95,-220.49019607843138,166.0,209.50980392156862,-23.56,1.92,-42.46
44.0,279.01960784313724,297.0,147.50980392156862,-3.89,5.98,-36.44
44.05,247.01960784313727,297.0,70.50980392156863,-5.43,-14.41,-31.33
44.1,311.01960784313724,183.0,39.509803921568626,-3.64,-5.7,-24.51
44.15,200.01960784313727,297.0,-98.49019607843137,28.93,5.21,21.79
44.2,-220.49019607843138,-312.5098039215686,70.50980392156863,103.9,-23.13,46.81
44.25,-61.490196078431374,281.0,163.50980392156862,77.83,3.85,46.36
44.3,295.01960784313724,166.0,193.50980392156862,57.95,13.75,49.26
44.35,-252.49019607843138,183.0,301.5098039215686,37.58,9.06,39.57
44.4,-315.4901960784314,101.0,-233.0,-5.46,16.34,20.14
44.45,216.01960784313727,166.0,-218.0,1.67,8.96,15.03
44.5,-283.4901960784314,264.0,-295.0,48.25,4.58,23.78
44.55,-252.49019607843138,-312.5098039215686,-310.0,50.49,14.24,29.49
44.6,-315.4901960784314,150.0,-279.0,-6.27,18.97,21.47
44.65,-315.4901960784314,3.0,-218.0,-59.92,32.79,12.23
44.7,184.01960784313727,-45.0,316.5098039215686,-86.52,34.96,-12.68
44.75,-70.98039215686275,-62.0,316.5098039215686,-110.6,42.45,-39.59
44.8,-213.98039215686273,35.0,270.5098039215686,-33.6,-8.22,-25.31
44.85,-45.490196078431374,166.0,-67.49019607843137,-9.87,-2.93,-18.84
44.9,34.509803921568626,-78.0,-6.490196078431373,-70.07,25.97,-52.16
44.95,-156.49019607843138,-143.0,-310.0,-40.36,37.1,-80.4
45.0,311.01960784313724,183.0,301.5098039215686,-52.57,10.46,-70.46
45.05,-252.49019607843138,133.0,86.50980392156863,-55.76,-4.33,-66.72
45.1,-156.49019607843138,150.0,-21.49019607843137,-29.89,-0.66,-59.79
45.15,-124.49019607843137,215.0,55.509803921568626,-29.79,2.76,-51.98
45.2,-93.49019607843137,117.0,163.50980392156862,-37.17,-2.3,-42.22
45.25,-45.490196078431374,150.0,132.50980392156862,-59.4,-3.74,-24.37
45.3,-93.49019607843137,117.0,24.50980392156863,-51.42,0.87,-9.98
45.35,-156.49019607843138,183.0,39.509803921568626,-62.16,-21.62,-8.86
45.4,-140.49019607843138,183.0,147.50980392156862,-50.23,-51.13,-56.74
45.45,-315.4901960784314,248.0,132.50980392156862,-5.67,-26.03,-57.23
45.5,88.01960784313725,-149.50980392156862,-129.49019607843138,86.93,-9.9,39.25
45.55,-188.49019607843138,-182.50980392156862,-67.49019607843137,77.62,6.09,82.23
45.6,-299.4901960784314,84.0,224.50980392156862,-55.34,87.53,110.02
45.65,57.01960784313726,-13.0,316.5098039215686,-77.35,63.03,117.02
45.7,-236.49019607843138,52.0,224.50980392156862,-80.19,72.03,107.85
45.75,88.01960784313725,183.0,116.50980392156863,-100.91,59.67,97.91
45.8,216.01960784313727,150.0,-310.0,-59.4,7.52,35.82
45.85,2.5098039215686274,183.0,255.50980392156862,-2.42,4.41,-18.63
45.9,18.50980392156863,-182.50980392156862,162.50980392156862,79.68,0.8,-29.86
45.95,65.50980392156863,-149.50980392156862,178.50980392156862,67.47,-16.34,-43.97
46.0,81.50980392156863,264.0,224.50980392156862,9.33,-28.69,-61.22
46.05,-93.49019607843137,199.0,239.50980392156862,1.7,-32.54,-73.33
46.1,-220.49019607843138,248.0,132.50980392156862,3.42,-22.6,-75.26
46.15,311.01960784313724,264.0,24.50980392156863,22.84,-23.16,-75.61
46.2,200.01960784313727,281.0,39.509803921568626,-29.02,-6.47,-86.98
46.25,-22.980392156862745,117.0,101.50980392156863,-63.74,26.77,-55.73
46.3,120.01960784313725,215.0,101.50980392156863,-65.66,19.84,-0.5
46.35,2.5098039215686274,117.0,147.50980392156862,-111.86,50.19,-10.23
46.4,-188.49019607843138,52.0,-310.0,-147.56,64.57,-35.22
46.45,-204.49019607843138,150.0,-264.0,-98.74,46.09,-33.15
46.5,-61.490196078431374,297.0,270.5098039215686,-46.34,9.31,-31.02
46.55,-45.490196078431374,248.0,224.50980392156862,-32.59,-6.68,-50.44
46.6,-61.490196078431374,248.0,178.50980392156862,-26.46,-17.35,-61.71
46.65,-77.49019607843137,248.0,162.50980392156862,-23.94,-26.66,-57.2
46.7,-77.49019607843137,281.0,55.509803921568626,-5.95,-37.06,-47.01
46.75,-61.490196078431374,297.0,9.509803921568627,-1.68,-33.73,-41.52
46.8,-204.49019607843138,-312.5098039215686,9.509803921568627,21.93,-37.27,-49.08
46.85,-315.4901960784314,-263.5098039215686,-6.490196078431373,45.91,-32.09,-23.21
46.9,-70.98039215686275,-198.50980392156862,-36.490196078431374,81.71,-12.31,52.17
46.95,216.01960784313727,-165.50980392156862,-6.490196078431373,145.31,-14.52,112.58
47.0,-299.4901960784314,297.0,193.50980392156862,121.19,18.69,107.57
47.05,311.01960784313724,117.0,255.50980392156862,27.99,49.77,71.28
47.1,-299.4901960784314,19.0,-310.0,8.49,50.05,44.33
47.15,-140.49019607843138,150.0,-279.0,46.96,35.49,21.96
47.2,-172.49019607843138,281.0,316.5098039215686,88.36,42.14,11.04
47.25,295.01960784313724,-263.5098039215686,-295.0,77.83,35.56,19.23
47.3,263.01960784313724,248.0,-203.0,9.61,19.14,31.76
47.35,295.01960784313724,101.0,-218.0,-36.09,2.97,33.62
47.4,-315.4901960784314,52.0,-233.0,-46.06,-11.02,25.64
47.45,-283.4901960784314,52.0,301.5098039215686,-17.78,-17.28,-2.32
47.5,-299.4901960784314,101.0,224.50980392156862,1.88,-4.33,-46.28
47.55,88.01960784313725,117.0,209.50980392156862,-88.2,11.16,-58.32
47.6,-6.980392156862745,19.0,209.50980392156862,-69.2,-23.3,-19.71
47.65,34.509803921568626,133.0,24.50980392156863,18.15,-28.03,-9.25
47.7,-77.49019607843137,215.0,24.50980392156863,-41.83,28.1,-32.49
47.75,311.01960784313724,101.0,224.50980392156862,-84.21,20.54,-53.07
47.8,-124.49019607843137,150.0,301.5098039215686,-95.76,-5.21,-54.43
47.85,-77.49019607843137,232.0,209.50980392156862,-39.45,-18.19,-44.53
47.9,-93.49019607843137,-247.50980392156862,86.50980392156863,25.96,-23.23,-34.1
47.95,-93.49019607843137,-263.5098039215686,101.50980392156863,43.39,-31.21,-28.71
48.0,-188.49019607843138,264.0,132.50980392156862,-25.83,-22.71,-15.65
48.05,-188.49019607843138,150.0,209.50980392156862,-50.72,-8.78,-2.53
48.1,-299.4901960784314,264.0,116.50980392156863,-35.14,-6.19,2.4
48.15,216.01960784313727,-280.5098039215686,86.50980392156863,-27.02,-20.01,8.14
48.2,88.01960784313725,-296.5098039215686,101.50980392156863,21.72,-21.24,26.23
48.25,168.01960784313727,-149.50980392156862,-36.490196078431374,123.85,-25.96,67.01
48.3,-299.4901960784314,-116.50980392156863,116.50980392156863,187.48,-18.82,81.85
48.35,-283.4901960784314,-312.5098039215686,286.5098039215686,96.06,21.38,66.87
48.4,184.01960784313727,101.0,-295.0,20.57,45.88,60.71
48.45,231.01960784313727,84.0,-249.0,5.45,36.33,44.26
48.5,-220.49019607843138,232.0,-249.0,19.45,34.58,35.37
48.55,-283.4901960784314,199.0,-249.0,40.31,17.36,11.88
48.6,-220.49019607843138,199.0,-172.0,0.93,13.61,-17.82
48.65,-283.4901960784314,133.0,-233.0,-14.18,14.38,-38.23
48.7,279.01960784313724,166.0,-264.0,-3.96,6.61,-41.13
48.75,-299.4901960784314,199.0,270.5098039215686,-5.22,8.54,-50.09
48.8,200.01960784313727,133.0,239.50980392156862,-59.19,19.7,-75.12
48.85,72.01960784313725,101.0,286.5098039215686,-84.35,25.09,-48.73
48.9,-267.4901960784314,166.0,116.50980392156863,7.2,-15.18,-4.14
48.95,145.50980392156862,232.0,9.509803921568627,-16.1,20.3,-4.1
49.0,295.01960784313724,101.0,193.50980392156862,-71.37,12.32,-16.11
49.05,-156.49019607843138,117.0,209.50980392156862,-76.16,-1.92,-15.37
49.1,2.5098039215686274,183.0,116.50980392156863,-26.6,-2.13,-13.45
49.15,2.5098039215686274,-280.5098039215686,70.50980392156863,-4.9,0.03,-0.32
49.2,-29.49019607843137,297.0,116.50980392156863,-28.95,3.71,8.31
49.25,-77.49019607843137,281.0,101.50980392156863,-64.26,14.52,23.01
49.3,-172.49019607843138,297.0,39.509803921568626,-56.74,3.85,32.99
49.35,-93.49019607843137,-280.5098039215686,24.50980392156863,-68.08,2.87,22.03
49.4,-172.49019607843138,-296.5098039215686,9.509803921568627,-50.33,-23.76,8.87
49.45,-29.49019607843137,-231.50980392156862,-6.490196078431373,20.74,-50.57,-42.88
49.5,-252.49019607843138,-149.50980392156862,55.509803921568626,69.95,-39.89,-37.98
49.55,120.01960784313725,-51.509803921568626,9.509803921568627,159.66,-70.62,14.96
49.6,-124.49019607843137,-182.50980392156862,101.50980392156863,179.57,-71.57,40.37
49.65,-172.49019607843138,313.0,224.50980392156862,130.61,-42.59,34.18
49.7,216.01960784313727,183.0,-279.0,62.95,-2.34,22.1
49.75,120.01960784313725,133.0,-233.0,-12.53,12.56,26.51
49.8,279.01960784313724,117.0,-172.0,-9.35,-4.58,29.31
49.85,-140.49019607843138,166.0,-187.0,14.41,-9.13,15.7
49.9,-188.49019607843138,199.0,-218.0,41.78,-3.74,-2.39
49.95,-252.49019607843138,297.0,-295.0,46.29,2.34,-20.59
50.0,279.01960784313724,215.0,-249.0,13.43,-2.58,-30.42
50.05,279.01960784313724,183.0,-310.0,13.78,4.51,-19.68
50.1,279.01960784313724,232.0,270.5098039215686,19.1,16.87,-5.68
50.15,295.01960784313724,215.0,239.50980392156862,-21.42,34.72,9.54
50.2,-220.49019607843138,117.0,209.50980392156862,-66.12,43.82,9.5
50.25,311.01960784313724,52.0,209.50980392156862,-120.79,58.38,-26.19
50.3,136.01960784313727,101.0,316.5098039215686,-113.65,48.68,-28.53
50.35,295.01960784313724,264.0,209.50980392156862,-37.52,25.65,14.79
50.4,18.50980392156863,-312.5098039215686,9.509803921568627,28.79,5.91,38.24
50.45,-29.49019607843137,232.0,255.50980392156862,-18.34,6.65,-9.35
50.5,-236.49019607843138,133.0,255.50980392156862,-75.95,25.83,-31.96
50.55,-236.49019607843138,264.0,132.50980392156862,-8.33,2.55,-18.14
50.6,-29.49019607843137,-280.5098039215686,163.50980392156862,-4.24,-10.91,-16.07
50.65,2.5098039215686274,215.0,255.50980392156862,1.18,-25.93,-15.97
50.7,34.509803921568626,264.0,209.50980392156862,24.03,-39.09,-23.95
50.75,-172.49019607843138,281.0,224.50980392156862,33.13,-32.16,-20.34
50.8,-315.4901960784314,297.0,116.50980392156863,58.12,-41.36,16.89
50.85,-299.4901960784314,281.0,193.50980392156862,73.24,-72.06,14.75
50.9,216.01960784313727,199.0,209.50980392156862,72.23,-79.9,-12.96
50.95,-172.49019607843138,313.0,-36.490196078431374,216.11,-79.02,2.36
51.0,-236.49019607843138,-84.50980392156863,-67.49019607843137,186.33,-42.76,7.23
51.05,-283.4901960784314,313.0,224.50980392156862,103.59,-30.3,9.12
51.1,-188.49019607843138,183.0,209.50980392156862,96.06,-24.84,6.11
51.15,136.01960784313727,-263.5098039215686,193.50980392156862,108.14,3.04,27.91
51.2,9.019607843137255,-165.50980392156862,255.50980392156862,166.66,-4.75,65.57
51.25,231.01960784313727,-247.50980392156862,-172.0,145.73,-10.81,75.2
51.3,-315.4901960784314,248.0,-95.0,116.29,-14.62,65.99
51.35,-156.49019607843138,264.0,-64.0,123.64,-9.97,44.71
51.4,-315.4901960784314,313.0,89.0,100.72,-16.13,13.21
51.45,231.01960784313727,281.0,181.0,132.22,-43.85,1.14
51.5,216.01960784313727,-280.5098039215686,120.0,202.15,-69.75,25.43
51.55,-236.49019607843138,-182.50980392156862,-18.0,237.29,-59.81,38.24
51.6,279.01960784313724,-247.50980392156862,89.0,156.47,-26.31,29.56
51.65,247.01960784313727,199.0,73.0,60.78,1.82,23.12
51.7,120.01960784313725,199.0,135.0,6.53,14.14,35.3
51.75,104.01960784313725,183.0,120.0,28.9,-7.1,55.56
51.8,216.01960784313727,215.0,-33.0,108.66,-10.21,69.32
51.85,216.01960784313727,-296.5098039215686,-49.0,92.81,0.84,81.15
51.9,231.01960784313727,117.0,27.0,17.49,13.89,52.83
51.95,311.01960784313724,84.0,-18.0,-19.67,19.6,-2.84
52.0,231.01960784313727,101.0,-64.0,-30.07,19.6,-30.81
52.05,25.019607843137255,150.0,-110.0,-34.55,-3.84,14.96
52.1,-267.4901960784314,264.0,132.50980392156862,19.13,21.56,68.51
52.15,-299.4901960784314,281.0,116.50980392156863,-82.5,47.53,60.71
52.2,311.01960784313724,84.0,-233.0,275.57,45.25,57.24
52.25,-252.49019607843138,101.0,-3.0,-319.45,17.85,73.76
52.3,-156.49019607843138,79.49019607843137,27.0,-139.02,-14.52,74.64
52.35,-45.490196078431374,193.49019607843138,-172.0,-32.13,-28.2,50.52
52.4,49.509803921568626,-2.5098039215686274,-79.0,-20.23,-43.53,9.5
52.45,-61.490196078431374,-247.50980392156862,150.0,59.17,-42.94,15.87
52.5,-140.49019607843138,209.49019607843138,12.0,29.77,-45.32,3.41
52.55,18.50980392156863,-116.50980392156863,150.0,86.26,-32.33,-15.2
52.6,49.509803921568626,46.490196078431374,12.0,52.35,-28.17,-47.29
52.65,81.50980392156863,-100.50980392156863,27.0,106.88,-25.19,-90.45
52.7,81.50980392156863,-51.509803921568626,27.0,149.61,-2.02,-159.64
52.75,247.01960784313727,111.49019607843137,-18.0,218.81,-27.08,-139.59
52.8,-315.4901960784314,62.490196078431374,89.0,300.5,-73.74,-90.69
52.85,-315.4901960784314,-116.50980392156863,-49.0,268.96,-57.22,-27.41
52.9,88.01960784313725,-214.50980392156862,119.0,320.62,-41.26,15.7
52.95,216.01960784313727,-133.50980392156862,73.0,293.6,-4.89,37.12
53.0,279.01960784313724,-312.5098039215686,89.0,172.36,-0.2,40.16
53.05,-267.4901960784314,101.0,-33.0,21.37,16.2,28.82
53.1,-299.4901960784314,3.0,-3.0,-10.4,20.89,19.48
53.15,-299.4901960784314,117.0,-33.0,-5.71,19.88,5.41
53.2,295.01960784313724,183.0,-80.0,-34.48,35.59,-2.81
53.25,152.01960784313727,84.0,-18.0,-19.25,17.71,-15.34
53.3,200.01960784313727,101.0,-141.0,-97.13,28.49,-19.78
53.35,-38.98039215686274,-78.0,-187.0,-84.07,40.81,4.18
53.4,152.01960784313727,117.0,-310.0,-17.82,-18.61,24.31
53.45,113.50980392156863,133.0,193.50980392156862,-74.62,27.93,10.38
53.5,279.01960784313724,3.0,-279.0,-76.02,29.78,2.01
53.55,-204.49019607843138,264.0,-310.0,-88.45,16.62,10.31
53.6,-124.49019607843137,199.0,286.5098039215686,-92.61,19.88,7.09
53.65,-204.49019607843138,313.0,255.50980392156862,-38.68,14.17,-1.09
53.7,-156.49019607843138,-198.50980392156862,224.50980392156862,4.89,2.66,-9.35
53.75,-124.49019607843137,-296.5098039215686,255.50980392156862,60.92,-5.8,-20.45
53.8,-77.49019607843137,-247.50980392156862,209.50980392156862,130.47,-7.76,-30.32
53.85,-172.49019607843138,-198.50980392156862,239.50980392156862,122.03,-26.14,-39.98
53.9,311.01960784313724,313.0,209.50980392156862,35.58,-55.99,-59.68
53.95,136.01960784313727,232.0,193.50980392156862,12.24,0.38,-19.64
54.0,-70.98039215686275,-214.50980392156862,-52.490196078431374,130.71,-34.57,46.04
54.05,-140.49019607843138,-165.50980392156862,70.50980392156863,121.93,-4.82,53.29
54.1,152.01960784313727,101.0,316.5098039215686,13.32,58.52,66.87
54.15,216.01960784313727,52.0,-264.0,6.08,49.94,70.19
54.2,-267.4901960784314,68.0,-233.0,-9.31,42.56,65.15
54.25,-267.4901960784314,166.0,-249.0,-48.09,36.01,55.25
54.3,-283.4901960784314,150.0,-264.0,-6.09,20.72,42.26
54.35,-188.49019607843138,248.0,-233.0,30.26,2.9,14.65
54.4,-188.49019607843138,199.0,-203.0,24.7,-3.81,-16.56
54.45,-204.49019607843138,133.0,-218.0,11.33,-6.85,-32.91
54.5,-252.49019607843138,183.0,301.5098039215686,-10.08,4.9,-45.72
54.55,-315.4901960784314,117.0,239.50980392156862,-41.65,7.87,-76.66
54.6,152.01960784313727,133.0,239.50980392156862,-59.68,28.38,-72.25
54.65,168.01960784313727,215.0,224.50980392156862,21.3,-32.82,-17.12
54.7,-45.490196078431374,313.0,39.509803921568626,-7.95,-24.07,-5.26
54.75,-299.4901960784314,52.0,101.50980392156863,-78.23,8.47,-16.6
54.8,-156.49019607843138,84.0,239.50980392156862,-35.91,-6.68,-27.83
54.85,2.5098039215686274,264.0,-310.0,-16.35,-9.86,-46.84
54.9,-124.49019607843137,297.0,224.50980392156862,20.53,-20.92,-40.08
54.95,-172.49019607843138,-296.5098039215686,86.50980392156863,26.83,-22.22,-15.44
55.0,-267.4901960784314,313.0,24.50980392156863,4.08,-16.41,4.39
55.05,-236.49019607843138,183.0,86.50980392156863,-2.7,-5.63,9.71
55.1,-299.4901960784314,199.0,86.50980392156863,0.62,-4.19,14.19
55.15,-299.4901960784314,215.0,86.50980392156863,15.63,-19.14,5.27
55.2,263.01960784313724,232.0,101.50980392156863,32.89,-0.9,-0.53
55.25,41.01960784313726,-296.5098039215686,39.509803921568626,70.65,9.62,41.81
55.3,-299.4901960784314,-280.5098039215686,116.50980392156863,103.62,10.22,66.38
55.35,200.01960784313727,199.0,-310.0,8.84,53.37,69.98
55.4,104.01960784313725,35.0,-249.0,-24.54,37.17,81.67
55.45,-283.4901960784314,117.0,-279.0,-12.08,26.35,79.08
55.5,-236.49019607843138,183.0,-279.0,18.71,20.23,65.4
55.55,-188.49019607843138,248.0,-279.0,22.63,21.59,45.55
55.6,-188.49019607843138,166.0,-233.0,8.07,9.34,18.95
55.65,-108.49019607843137,133.0,-203.0,-8.16,-4.51,-24.93
55.7,-156.49019607843138,117.0,-218.0,1.04,-17.7,-61.05
55.75,-283.4901960784314,215.0,316.5098039215686,54.38,-33.24,-82.36
55.8,279.01960784313724,281.0,209.50980392156862,-8.54,-26.28,-103.47
55.85,-38.98039215686274,52.0,193.50980392156862,-84.42,11.62,-66.54
55.9,104.01960784313725,150.0,101.50980392156863,-8.51,-32.75,-1.37
55.95,177.50980392156862,248.0,-67.49019607843137,-8.26,-9.62,-6.31
56.0,-188.49019607843138,183.0,132.50980392156862,-53.76,25.44,-22.86
56.05,-315.4901960784314,183.0,224.50980392156862,-18.97,2.76,-11.73
56.1,-61.490196078431374,264.0,101.50980392156863,-3.64,-1.78,0.44
56.15,-124.49019607843137,248.0,116.50980392156863,-4.17,-3.6,9.33
56.2,-140.49019607843138,215.0,132.50980392156862,10.77,-10.74,8.07
56.25,-172.49019607843138,215.0,163.50980392156862,0.02,-5.87,7.02
56.3,-188.49019607843138,199.0,116.50980392156863,10.52,-12.31,5.02
56.35,-140.49019607843138,215.0,116.50980392156863,5.97,-8.88,-0.64
56.4,-188.49019607843138,215.0,162.50980392156862,9.09,-25.68,-2.25
56.45,-188.49019607843138,248.0,147.50980392156862,29.95,-45.6,-30.46
56.5,-315.4901960784314,281.0,147.50980392156862,41.32,-5.03,-30.0
56.55,25.019607843137255,-231.50980392156862,9.509803921568627,100.3,-9.62,25.88
56.6,-283.4901960784314,-214.50980392156862,116.50980392156863,102.92,-1.43,58.4
56.65,216.01960784313727,199.0,301.5098039215686,26.9,40.7,70.68
56.7,104.01960784313725,101.0,301.5098039215686,12.31,28.56,80.52
56.75,-236.49019607843138,166.0,316.5098039215686,52.31,23.31,81.53
56.8,-299.4901960784314,248.0,270.5098039215686,141.81,37.9,104.63
56.85,-299.4901960784314,-198.50980392156862,147.50980392156862,306.17,30.13,127.21
56.9,-283.4901960784314,-51.509803921568626,39.509803921568626,-281.64,37.17,104.42
56.95,295.01960784313724,-51.509803921568626,70.50980392156863,276.0,40.77,93.85
57.0,295.01960784313724,52.0,132.50980392156862,181.57,43.43,70.4
57.05,-267.4901960784314,-209.0,116.50980392156863,115.24,44.24,31.38
57.1,247.01960784313727,-143.0,-37.490196078431374,52.66,36.61,8.59
57.15,279.01960784313724,-160.0,-129.49019607843138,19.06,54.42,27.28
57.2,-156.49019607843138,-258.0,-52.490196078431374,49.79,47.32,47.93
57.25,129.50980392156862,-209.0,178.50980392156862,24.49,27.93,16.01
57.3,161.50980392156862,286.5098039215686,101.50980392156863,-0.63,26.77,-2.14
57.35,193.50980392156862,319.5098039215686,-83.49019607843137,7.27,24.22,-8.72
57.4,193.50980392156862,-290.0,-52.490196078431374,-17.71,26.81,-13.73
57.45,240.50980392156862,188.50980392156862,-37.490196078431374,-9.56,23.52,-14.04
57.5,272.5098039215686,-307.0,-83.49019607843137,-13.48,18.23,-9.63
57.55,320.5098039215686,270.5098039215686,-98.49019607843137,-22.61,15.85,5.06
57.6,-306.0,319.5098039215686,-113.49019607843137,-26.81,9.83,7.23
57.65,-275.0,286.5098039215686,-160.49019607843138,-21.81,7.31,16.57
57.7,-290.0,-225.0,-267.4901960784314,-46.62,-2.83,11.32
57.75,304.5098039215686,319.5098039215686,-236.49019607843138,-76.72,-22.32,-8.79
57.8,288.5098039215686,-127.0,-252.49019607843138,-80.78,-36.46,-3.72
57.85,240.50980392156862,35.0,-221.49019607843138,-116.17,-61.07,-15.37
57.9,272.5098039215686,52.0,-175.49019607843138,-163.0,-87.46,-40.33
57.95,208.50980392156862,52.0,55.509803921568626,-198.24,-82.42,-61.68
58.0,-140.49019607843138,-214.50980392156862,24.50980392156863,-130.87,-84.76,-65.25
58.05,-156.49019607843138,-84.50980392156863,86.50980392156863,-110.01,-94.53,-81.35
58.1,-188.49019607843138,313.0,224.50980392156862,-59.5,-71.18,-90.73
58.15,200.01960784313727,-280.5098039215686,101.50980392156863,-2.24,-55.96,-71.76
58.2,200.01960784313727,-280.5098039215686,-36.490196078431374,36.77,-34.54,-49.88
58.25,184.01960784313727,248.0,-21.49019607843137,-14.6,-16.06,-34.31
58.3,136.01960784313727,68.0,70.50980392156863,-48.16,9.48,-40.92
58.35,41.01960784313726,101.0,86.50980392156863,-88.13,56.66,-47.82
58.4,-133.98039215686273,150.0,163.50980392156862,-114.59,78.57,2.29
58.45,311.01960784313724,133.0,101.50980392156863,-49.84,27.23,43.63
58.5,145.50980392156862,150.0,178.50980392156862,-47.43,49.66,36.1
58.55,-283.4901960784314,68.0,316.5098039215686,-85.33,69.65,5.23
58.6,-204.49019607843138,117.0,316.5098039215686,-56.07,25.09,-2.98
58.65,-13.490196078431373,183.0,239.50980392156862,-21.18,-8.04,-14.78
58.7,34.509803921568626,232.0,193.50980392156862,3.94,-27.4,-29.48
58.75,-13.490196078431373,215.0,163.50980392156862,24.0,-32.75,-48.31
58.8,-156.49019607843138,215.0,147.50980392156862,12.9,-32.75,-51.77
58.85,-108.49019607843137,183.0,163.50980392156862,-14.14,-33.31,-48.8
58.9,-108.49019607843137,133.0,178.50980392156862,-18.45,-33.66,-52.05
58.95,-188.49019607843138,183.0,132.50980392156862,-2.35,-33.63,-51.11
59.0,311.01960784313724,264.0,101.50980392156863,0.79,-40.59,-39.77
59.05,184.01960784313727,264.0,55.509803921568626,20.95,-25.16,-15.69
59.1,-101.98039215686275,-280.5098039215686,9.509803921568627,54.41,-8.57,45.87
59.15,263.01960784313724,-280.5098039215686,24.50980392156863,134.46,-37.3,88.04
59.2,-108.49019607843137,-280.5098039215686,193.50980392156862,163.79,-20.47,82.13
59.25,263.01960784313724,199.0,-295.0,96.52,32.97,66.38
59.3,-6.980392156862745,133.0,-249.0,28.41,31.29,69.0
59.35,216.01960784313727,68.0,-172.0,-15.16,27.89,77.4
59.4,295.01960784313724,84.0,-110.0,12.38,8.12,71.63
59.45,-236.49019607843138,248.0,-156.0,46.19,-0.03,55.81
59.5,-220.49019607843138,232.0,-126.0,48.67,-1.92,26.16
59.55,-299.4901960784314,183.0,-110.0,19.34,-7.27,-2.21
59.6,-315.4901960784314,117.0,-126.0,25.26,-25.16,-15.27
59.65,-267.4901960784314,166.0,-187.0,38.35,-29.5,-17.79
59.7,-299.4901960784314,215.0,316.5098039215686,42.86,-28.87,-24.16
59.75,247.01960784313727,199.0,239.50980392156862,-5.53,-6.12,-44.0
59.8,104.01960784313725,101.0,209.50980392156862,-46.38,18.83,-11.1
59.85,263.01960784313724,133.0,132.50980392156862,14.48,-1.29,31.8
59.9,97.50980392156863,232.0,86.50980392156863,-4.03,22.12,26.16
59.95,-188.49019607843138,166.0,193.50980392156862,-87.47,52.95,2.57
60.0,200.01960784313727,117.0,255.50980392156862,-91.67,35.8,7.93
60.05,-236.49019607843138,313.0,209.50980392156862,-22.26,-6.99,23.89
60.1,-29.49019607843137,-247.50980392156862,209.50980392156862,10.84,-31.18,27.84
60.15,-93.49019607843137,-247.50980392156862,239.50980392156862,41.29,-44.27,11.57
60.2,-188.49019607843138,-149.50980392156862,239.50980392156862,84.51,-54.03,9.5
60.25,-172.49019607843138,-165.50980392156862,178.50980392156862,107.33,-66.42,18.22
60.3,-108.49019607843137,-263.5098039215686,239.50980392156862,100.86,-65.16,16.29
60.35,-172.49019607843138,-312.5098039215686,224.50980392156862,119.9,-68.59,13.81
60.4,-188.49019607843138,-280.5098039215686,239.50980392156862,142.75,-86.58,-3.33
60.45,295.01960784313724,-296.5098039215686,-295.0,139.32,-59.63,-12.61
60.5,57.01960784313726,-263.5098039215686,224.50980392156862,182.09,-55.96,21.05
60.55,-156.49019607843138,-231.50980392156862,-295.0,200.33,-49.03,28.68
60.6,-283.4901960784314,248.0,-33.0,147.23,-27.47,3.69
60.65,295.01960784313724,183.0,-64.0,126.48,-5.03,-14.88
60.7,120.01960784313725,-280.5098039215686,-49.0,138.2,6.12,-13.06
60.75,152.01960784313727,-263.5098039215686,43.0,128.33,-2.16,7.75
60.8,231.01960784313727,-312.5098039215686,73.0,129.49,-6.43,30.92
60.85,216.01960784313727,-263.5098039215686,58.0,141.32,-7.76,41.95
60.9,247.01960784313727,-247.50980392156862,12.0,151.57,-2.83,49.47
60.95,247.01960784313727,-247.50980392156862,-33.0,117.06,18.93,53.18
61.0,184.01960784313727,297.0,-33.0,66.49,25.72,62.81
61.05,200.01960784313727,183.0,-18.0,43.6,23.76,69.04
61.1,216.01960784313727,183.0,-49.0,35.62,11.79,64.31
61.15,263.01960784313724,117.0,-110.0,61.87,8.01,36.94
61.2,184.01960784313727,68.0,-141.0,37.72,26.04,16.33
61.25,231.01960784313727,19.0,-187.0,37.23,9.13,40.51
61.3,-188.49019607843138,-13.0,-295.0,31.8,5.18,36.91
61.35,-267.4901960784314,-45.0,-310.0,27.88,13.75,21.96
61.4,120.01960784313725,-13.0,-310.0,14.48,-4.61,20.98
61.45,295.01960784313724,-29.0,224.50980392156862,23.96,-22.92,18.04
61.5,-172.49019607843138,-29.0,193.50980392156862,39.54,-27.54,-2.18
61.55,-124.49019607843137,19.0,163.50980392156862,72.68,-24.63,-19.08
61.6,-188.49019607843138,117.0,163.50980392156862,56.72,-27.22,-26.43
61.65,-188.49019607843138,68.0,163.50980392156862,24.14,-29.5,-16.39
61.7,-140.49019607843138,68.0,132.50980392156862,15.46,-24.81,-11.07
61.75,-188.49019607843138,183.0,209.50980392156862,26.27,-21.59,1.17
61.8,-236.49019607843138,183.0,178.50980392156862,10.7,-23.2,8.63
61.85,-299.4901960784314,183.0,178.50980392156862,0.34,-27.15,13.81
61.9,216.01960784313727,166.0,193.50980392156862,20.29,-38.14,8.17
61.95,120.01960784313725,248.0,178.50980392156862,57.35,-19.31,27.07
62.0,168.01960784313727,-296.5098039215686,132.50980392156862,101.35,-15.85,63.02
62.05,-236.49019607843138,232.0,301.5098039215686,61.34,9.06,58.4
62.1,295.01960784313724,101.0,-233.0,13.92,38.85,43.56
62.15,152.01960784313727,117.0,-218.0,-11.94,42.0,45.59
62.2,247.01960784313727,183.0,-172.0,7.9,18.02,49.26
62.25,-267.4901960784314,199.0,-187.0,27.29,4.3,34.63
62.3,-220.49019607843138,199.0,-203.0,59.63,-2.55,9.08
62.35,-283.4901960784314,248.0,-218.0,15.42,-1.53,-3.86
62.4,-299.4901960784314,117.0,-172.0,31.49,-5.49,-26.36
62.45,-267.4901960784314,199.0,-249.0,10.73,0.07,-28.95
62.5,311.01960784313724,150.0,-264.0,-20.23,6.58,-29.51
62.55,263.01960784313724,166.0,316.5098039215686,-35.25,13.47,-42.36
62.6,216.01960784313727,183.0,270.5098039215686,-74.52,35.94,-57.06
62.65,-22.980392156862745,133.0,-310.0,-101.71,38.53,-16.42
62.7,-220.49019607843138,215.0,224.50980392156862,11.36,-18.09,29.59
62.75,-61.490196078431374,248.0,147.50980392156862,-76.51,42.03,17.34
62.8,231.01960784313727,52.0,224.50980392156862,-77.46,17.25,4.6
62.85,-61.490196078431374,117.0,239.50980392156862,-73.75,6.61,-12.99
62.9,-13.490196078431373,166.0,239.50980392156862,-21.95,-7.94,-39.7
62.95,-29.49019607843137,-312.5098039215686,116.50980392156863,8.28,-11.93,-39.84
63.0,-124.49019607843137,313.0,101.50980392156863,8.11,-15.57,-24.3
63.05,-124.49019607843137,-296.5098039215686,70.50980392156863,6.78,-14.62,-8.65
63.1,-124.49019607843137,297.0,55.509803921568626,-0.53,-5.14,-3.65
63.15,-236.49019607843138,264.0,132.50980392156862,-2.42,-19.91,-24.93
63.2,311.01960784313724,281.0,147.50980392156862,-11.06,-1.25,-41.06
63.25,41.01960784313726,-312.5098039215686,116.50980392156863,68.94,-8.32,7.86
63.3,295.01960784313724,-198.50980392156862,132.50980392156862,117.1,-2.13,32.25
63.35,200.01960784313727,313.0,224.50980392156862,48.64,45.29,51.68
63.4,88.01960784313725,101.0,301.5098039215686,-9.42,51.66,70.4
63.45,-315.4901960784314,35.0,-218.0,-37.21,42.1,70.86
63.5,-299.4901960784314,84.0,-249.0,-28.63,27.37,51.54
63.55,-252.49019607843138,215.0,301.5098039215686,6.81,21.38,26.41
63.6,-188.49019607843138,232.0,-310.0,36.39,8.5,4.88
63.65,-108.49019607843137,166.0,-279.0,18.71,-6.96,-27.03
63.7,-124.49019607843137,101.0,-218.0,11.5,-14.76,-52.26
63.75,-204.49019607843138,183.0,286.5098039215686,31.1,-20.19,-71.51
63.8,-299.4901960784314,215.0,270.5098039215686,-18.34,-5.77,-86.11
63.85,25.019607843137255,117.0,239.50980392156862,-45.19,9.73,-51.95
63.9,-6.980392156862745,232.0,116.50980392156863,-7.81,-17.14,28.09
63.95,113.50980392156863,248.0,-67.49019607843137,14.58,-13.29,53.08
64.0,-236.49019607843138,68.0,86.50980392156863,-100.91,44.9,26.76
64.05,-267.4901960784314,19.0,286.5098039215686,-89.36,30.52,13.74
64.1,-45.490196078431374,150.0,209.50980392156862,-53.8,21.38,8.7
64.15,-13.490196078431373,215.0,147.50980392156862,-25.87,7.73,-16.42
64.2,34.509803921568626,166.0,178.50980392156862,-37.14,-3.56,-33.47
64.25,-124.49019607843137,166.0,163.50980392156862,-78.89,-1.29,-29.97
64.3,-267.4901960784314,264.0,147.50980392156862,-51.77,-14.24,-18.24
64.35,-188.49019607843138,-214.50980392156862,39.509803921568626,-10.33,-20.92,-19.68
64.4,-220.49019607843138,-165.50980392156862,9.509803921568627,6.32,-30.86,-34.59
64.45,311.01960784313724,-231.50980392156862,70.50980392156863,34.53,-28.83,-47.57
64.5,200.01960784313727,-149.50980392156862,-6.490196078431373,61.34,-15.29,-7.15
64.55,-299.4901960784314,-214.50980392156862,86.50980392156863,110.62,-26.73,25.25
64.6,-267.4901960784314,-312.5098039215686,193.50980392156862,70.93,10.22,36.77
64.65,216.01960784313727,264.0,224.50980392156862,10.0,37.62,41.56
64.7,279.01960784313724,133.0,-279.0,-6.62,26.56,42.37
64.75,-220.49019607843138,133.0,-264.0,-8.19,22.61,30.64
64.8,-220.49019607843138,183.0,-249.0,17.07,13.4,7.96
64.85,-220.49019607843138,232.0,-233.0,19.1,4.97,-8.34
64.9,-188.49019607843138,183.0,-233.0,-0.84,0.59,-25.8
64.95,-236.49019607843138,52.0,-203.0,-16.77,-0.31,-46.14
65.0,-315.4901960784314,101.0,-295.0,-3.92,-1.74,-53.7
65.05,295.01960784313724,150.0,-310.0,-10.68,-2.16,-75.68
65.1,9.019607843137255,101.0,316.5098039215686,-47.78,21.91,-71.41
65.15,-181.98039215686273,150.0,193.50980392156862,-58.84,-14.52,4.15
65.2,34.509803921568626,35.0,101.50980392156863,-9.87,-11.68,6.11
65.25,-108.49019607843137,84.0,39.509803921568626,-58.56,26.07,-19.75
65.3,-315.4901960784314,52.0,255.50980392156862,-26.92,2.94,-14.64
65.35,-77.49019607843137,199.0,163.50980392156862,-21.53,-5.63,-10.54
65.4,-93.49019607843137,101.0,132.50980392156862,-30.98,-6.22,-14.46
65.45,-140.49019607843138,166.0,193.50980392156862,-14.98,-8.29,-4.07
65.5,-204.49019607843138,166.0,116.50980392156863,10.7,-14.8,0.3
65.55,-236.49019607843138,232.0,86.50980392156863,-1.33,-10.04,7.75
65.6,-172.49019607843138,183.0,86.50980392156863,-3.05,-9.13,8.03
65.65,-188.49019607843138,150.0,70.50980392156863,7.2,-9.09,0.37
65.7,-252.49019607843138,199.0,39.509803921568626,7.79,-19.17,-15.06
65.75,279.01960784313724,215.0,70.50980392156863,4.89,-7.41,-24.61
65.8,72.01960784313725,232.0,55.509803921568626,21.06,14.73,19.83
65.85,231.01960784313727,264.0,70.50980392156863,75.59,-7.52,59.83
65.9,-156.49019607843138,183.0,209.50980392156862,23.79,27.3,50.7
65.95,247.01960784313727,68.0,270.5098039215686,-26.85,57.36,46.6
66.0,216.01960784313727,101.0,286.5098039215686,-30.73,43.64,52.97
66.05,-236.49019607843138,117.0,-295.0,-42.25,37.34,47.44
66.1,-188.49019607843138,133.0,301.5098039215686,-9.87,29.78,23.4
66.15,-188.49019607843138,199.0,-310.0,-12.85,18.02,-3.65
66.2,-172.49019607843138,133.0,-279.0,-20.16,5.95,-30.11
66.25,-204.49019607843138,117.0,-295.0,-3.61,-5.07,-49.22
66.3,-267.4901960784314,183.0,286.5098039215686,-5.67,-4.89,-61.89
66.35,279.01960784313724,183.0,239.50980392156862,-14.21,-8.5,-84.08
66.4,216.01960784313727,166.0,193.50980392156862,-68.64,11.27,-94.61
66.45,-70.98039215686275,166.0,209.50980392156862,-48.83,-12.49,-30.18
66.5,-156.49019607843138,215.0,147.50980392156862,34.46,-40.94,-9.98
66.55,-61.490196078431374,281.0,-6.490196078431373,-67.2,26.42,-17.16
66.6,-283.4901960784314,117.0,255.50980392156862,-87.05,8.57,-11.73
66.65,2.5098039215686274,117.0,239.50980392156862,-71.44,-2.23,-19.96
66.7,-45.490196078431374,215.0,163.50980392156862,-2.24,-17.98,-22.55
66.75,-77.49019607843137,-312.5098039215686,55.509803921568626,38.0,-26.42,-18.24
66.8,-140.49019607843138,264.0,101.50980392156863,13.57,-21.83,-11.52
66.85,-172.49019607843138,166.0,55.509803921568626,-5.92,-17.32,-7.11
66.9,-252.49019607843138,183.0,39.509803921568626,-3.36,-10.95,4.92
66.95,-315.4901960784314,248.0,39.509803921568626,0.09,-21.94,1.14
67.0,231.01960784313727,232.0,86.50980392156863,13.29,-10.25,-7.57
67.05,72.01960784313725,313.0,55.509803921568626,57.53,3.64,29.28
67.1,-283.4901960784314,-280.5098039215686,147.50980392156862,92.7,4.3,58.12
67.15,-283.4901960784314,166.0,-295.0,7.55,35.63,49.02
67.2,216.01960784313727,84.0,-310.0,-31.43,46.76,55.98
67.25,263.01960784313724,117.0,-249.0,-20.62,32.44,56.54
67.3,-283.4901960784314,166.0,-279.0,-9.8,25.97,50.1
67.35,-220.49019607843138,199.0,-310.0,10.03,14.87,32.46
67.4,-204.49019607843138,183.0,-279.0,13.43,4.62,2.96
67.45,-188.49019607843138,166.0,-279.0,-4.62,3.95,-24.54
67.5,-299.4901960784314,150.0,-264.0,-13.76,-3.63,-42.71
67.55,-315.4901960784314,183.0,-295.0,-3.43,-11.72,-52.09
67.6,-315.4901960784314,248.0,255.50980392156862,6.18,-9.41,-68.36
67.65,200.01960784313727,199.0,178.50980392156862,-47.53,10.08,-75.36
67.7,41.01960784313726,150.0,178.50980392156862,-71.86,8.01,-27.59
67.75,-220.49019607843138,166.0,163.50980392156862,11.01,-21.48,2.15
67.8,-93.49019607843137,281.0,39.509803921568626,-66.68,30.69,-1.27
67.85,295.01960784313724,84.0,224.50980392156862,-91.63,22.85,-3.96
67.9,-45.490196078431374,150.0,255.50980392156862,-62.37,4.2,-11.52
67.95,-13.490196078431373,248.0,193.50980392156862,-6.2,-8.25,-23.98
68.0,-61.490196078431374,-280.5098039215686,147.50980392156862,25.99,-20.85,-25.14
68.05,-124.49019607843137,297.0,147.50980392156862,15.53,-16.62,-15.55
68.1,-220.49019607843138,248.0,116.50980392156863,1.49,-18.26,-0.88
68.15,-172.49019607843138,215.0,132.50980392156862,-9.14,-6.71,3.38
68.2,-204.49019607843138,232.0,116.50980392156863,-2.24,-15.11,2.19
68.25,-267.4901960784314,281.0,101.50980392156863,2.82,-29.25,-14.43
68.3,136.01960784313727,313.0,116.50980392156863,22.63,-8.57,-2.74
68.35,25.019607843137255,-198.50980392156862,101.50980392156863,100.54,-25.86,54.23
68.4,-156.49019607843138,-280.5098039215686,209.50980392156862,88.36,-16.09,64.28
68.45,-283.4901960784314,166.0,-203.0,31.49,5.35,42.58
68.5,216.01960784313727,133.0,-233.0,5.38,21.45,32.46
68.55,279.01960784313724,199.0,-172.0,7.83,13.09,28.79
68.6,-299.4901960784314,166.0,-141.0,24.66,-0.9,21.86
68.65,-267.4901960784314,199.0,-203.0,44.86,-8.92,7.79
68.7,-220.49019607843138,215.0,-203.0,36.21,-5.66,-10.58
68.75,-283.4901960784314,215.0,-203.0,30.05,-6.89,-23.28
68.8,-283.4901960784314,248.0,-233.0,30.58,-2.48,-24.72
68.85,-315.4901960784314,264.0,-279.0,25.15,1.4,-25.7
68.9,311.01960784313724,248.0,-310.0,-21.84,16.76,-32.66
68.95,9.019607843137255,215.0,255.50980392156862,-80.68,37.48,-0.01
69.0,88.01960784313725,199.0,209.50980392156862,-13.79,-3.04,54.58
69.05,113.50980392156863,313.0,101.50980392156863,44.44,11.02,54.44
69.1,-172.49019607843138,248.0,132.50980392156862,-42.18,27.86,26.48
69.15,-315.4901960784314,84.0,270.5098039215686,-29.02,1.15,23.43
69.2,-172.49019607843138,199.0,162.50980392156862,26.45,-20.82,34.42
69.25,-61.490196078431374,-312.5098039215686,132.50980392156862,49.23,-26.07,32.6
69.3,-93.49019607843137,313.0,147.50980392156862,44.51,-24.56,19.55
69.35,-140.49019607843138,297.0,224.50980392156862,48.43,-40.24,13.74
69.4,-93.49019607843137,-280.5098039215686,178.50980392156862,66.28,-46.3,14.58
69.45,-140.49019607843138,-263.5098039215686,193.50980392156862,91.41,-55.4,16.54
69.5,-108.49019607843137,-214.50980392156862,209.50980392156862,108.56,-63.55,19.69
69.55,-77.49019607843137,-247.50980392156862,239.50980392156862,115.38,-77.17,14.96
69.6,-93.49019607843137,-247.50980392156862,270.5098039215686,154.02,-88.09,-32.98
69.65,184.01960784313727,-198.50980392156862,255.50980392156862,166.41,-45.91,5.06
69.7,-54.98039215686274,-149.50980392156862,163.50980392156862,223.04,-61.45,58.54
69.75,-172.49019607843138,-198.50980392156862,-203.0,158.4,-31.07,59.55
69.8,-299.4901960784314,199.0,-33.0,83.43,-15.67,39.57
69.85,-299.4901960784314,183.0,-79.0,71.88,-1.57,11.08
69.9,216.01960784313727,313.0,12.0,100.79,3.08,10.73
69.95,152.01960784313727,-247.50980392156862,104.0,113.88,-17.74,26.86
70.0,247.01960784313727,-312.5098039215686,104.0,132.39,-29.99,35.19
70.05,216.01960784313727,-280.5098039215686,104.0,139.18,-26.59,42.51
70.1,168.01960784313727,-280.5098039215686,58.0,122.63,-23.44,53.85
70.15,216.01960784313727,297.0,58.0,101.73,-17.91,65.5
70.2,200.01960784313727,281.0,12.0,98.72,-13.68,76.14
70.25,216.01960784313727,215.0,-49.0,63.37,-5.66,77.05
70.3,216.01960784313727,133.0,-64.0,44.75,-0.13,70.61
70.35,247.01960784313727,133.0,-95.0,49.34,9.24,54.86
70.4,263.01960784313724,150.0,-126.0,27.18,15.82,30.26
70.45,200.01960784313727,84.0,-141.0,16.89,27.54,12.9
70.5,247.01960784313727,183.0,-172.0,34.04,-0.2,18.43
70.55,-172.49019607843138,215.0,-310.0,69.29,-19.59,21.79
70.6,-188.49019607843138,215.0,239.50980392156862,30.19,-7.87,3.83
70.65,247.01960784313727,117.0,255.50980392156862,18.4,-17.49,8.91
70.7,-315.4901960784314,199.0,132.50980392156862,47.52,-25.51,14.82
70.75,-188.49019607843138,199.0,70.50980392156863,60.96,-21.03,4.43
70.8,-108.49019607843137,133.0,86.50980392156863,34.04,-10.6,-14.46
70.85,-156.49019607843138,133.0,162.50980392156862,29.25,-14.97,-31.79
70.9,-156.49019607843138,199.0,132.50980392156862,28.93,-12.59,-31.51
70.95,-188.49019607843138,215.0,116.50980392156863,39.96,-11.47,-29.02
71.0,-172.49019607843138,297.0,132.50980392156862,28.16,-7.94,-14.99
71.05,-188.49019607843138,297.0,224.50980392156862,19.1,-6.12,1.35
71.1,-220.49019607843138,281.0,209.50980392156862,28.16,-24.28,14.05
71.15,-267.4901960784314,264.0,255.50980392156862,19.48,-43.11,-1.93
71.2,200.01960784313727,297.0,270.5098039215686,25.75,-18.09,9.47
71.25,25.019607843137255,-296.5098039215686,178.50980392156862,80.14,-31.63,58.43
71.3,-140.49019607843138,264.0,239.50980392156862,77.02,-21.66,64.98
71.35,311.01960784313724,84.0,-203.0,15.7,-2.09,40.34
71.4,184.01960784313727,19.0,-203.0,14.65,7.45,29.14
71.45,216.01960784313727,150.0,-172.0,44.51,-1.11,33.3
71.5,263.01960784313724,166.0,-203.0,55.64,-6.92,35.89
71.55,295.01960784313724,133.0,-187.0,83.32,-4.26,22.7
71.6,-315.4901960784314,232.0,-233.0,55.53,-5.87,3.66
71.65,-236.49019607843138,117.0,-203.0,-20.13,9.03,-14.85
71.7,-283.4901960784314,68.0,-187.0,-9.28,10.88,-22.97
71.75,311.01960784313724,199.0,-279.0,11.78,7.28,-24.54
71.8,295.01960784313724,215.0,-264.0,18.92,7.35,-19.47
71.85,216.01960784313727,183.0,316.5098039215686,-31.19,18.76,-29.37
71.9,72.01960784313725,117.0,316.5098039215686,-92.37,40.91,-13.66
71.95,168.01960784313727,117.0,255.50980392156862,-18.34,-7.06,27.14
72.0,97.50980392156863,232.0,178.50980392156862,2.51,10.92,15.49
72.05,-315.4901960784314,117.0,209.50980392156862,-65.91,31.11,3.62
72.1,-267.4901960784314,52.0,316.5098039215686,-23.94,1.85,11.5
72.15,-108.49019607843137,232.0,209.50980392156862,25.26,-17.42,3.41
72.2,-108.49019607843137,264.0,193.50980392156862,30.23,-19.66,-7.43
72.25,-156.49019607843138,199.0,209.50980392156862,28.83,-22.88,-8.51
72.3,-188.49019607843138,183.0,209.50980392156862,17.73,-21.62,-3.96
72.35,-188.49019607843138,183.0,178.50980392156862,20.64,-22.01,-2.77
72.4,-140.49019607843138,215.0,162.50980392156862,15.53,-16.9,-7.5
72.45,-252.49019607843138,215.0,147.50980392156862,6.74,-19.87,-10.19
72.5,-299.4901960784314,232.0,178.50980392156862,0.23,-27.12,-14.81
72.55,216.01960784313727,264.0,178.50980392156862,17.66,-15.71,-6.2
72.6,104.01960784313725,-312.5098039215686,147.50980392156862,80.07,-17.11,25.46
72.65,295.01960784313724,-280.5098039215686,193.50980392156862,74.82,2.83,38.31
72.7,231.01960784313727,183.0,-233.0,32.89,18.58,45.03
72.75,216.01960784313727,133.0,-249.0,9.16,25.09,58.19
72.8,247.01960784313727,117.0,-249.0,28.48,19.7,67.53
72.85,295.01960784313724,199.0,-295.0,28.55,20.68,59.97
72.9,-315.4901960784314,183.0,-279.0,20.15,18.93,40.51
72.95,-220.49019607843138,133.0,-279.0,-2.24,15.29,16.01
73.0,-140.49019607843138,117.0,-249.0,-7.07,12.88,-19.4
73.05,-172.49019607843138,166.0,-233.0,-1.86,7.59,-44.18
73.1,-267.4901960784314,199.0,-233.0,-2.8,3.01,-48.9
73.15,-315.4901960784314,232.0,316.5098039215686,-14.98,5.53,-64.51
73.2,184.01960784313727,199.0,270.5098039215686,-64.26,26.28,-69.31
73.25,-6.980392156862745,183.0,224.50980392156862,-65.8,23.31,-11.84
73.3,-77.49019607843137,264.0,101.50980392156863,5.62,-13.57,34.46
73.35,-124.49019607843137,215.0,70.50980392156863,-134.16,53.9,32.01
73.4,295.01960784313724,133.0,270.5098039215686,-197.19,42.52,68.69
73.45,-61.490196078431374,-263.5098039215686,224.50980392156862,-279.02,31.95,110.51
73.5,-13.490196078431373,62.490196078431374,239.50980392156862,-205.59,9.73,129.52
73.55,97.50980392156863,307.4901960784314,286.5098039215686,-78.82,-18.93,142.82
73.6,81.50980392156863,-187.01960784313727,316.5098039215686,-90.65,-34.12,141.28
73.65,49.509803921568626,209.49019607843138,-264.0,-70.39,-58.79,129.66
73.7,208.50980392156862,258.4901960784314,-141.0,-52.05,-76.26,108.1
73.75,288.5098039215686,193.49019607843138,43.0,-36.86,-80.81,72.5
73.8,-227.0,209.49019607843138,135.0,-33.5,-81.51,15.28
73.85,-116.0,242.49019607843138,304.0,-3.19,-104.96,-7.08
73.9,-211.0,258.4901960784314,-307.5098039215686,14.76,-128.06,-14.18
73.95,-195.0,111.49019607843137,304.0,16.75,-129.74,-31.58
74.0,-306.0,128.49019607843138,-307.5098039215686,-8.79,-126.97,-34.41
74.05,-259.0,30.49019607843137,-199.50980392156862,50.28,-122.74,-28.95
74.1,288.5098039215686,-286.01960784313724,-261.5098039215686,29.77,-108.84,0.05
74.15,-259.0,128.49019607843138,212.0,52.1,-64.08,28.65
74.2,-290.0,242.49019607843138,73.0,79.61,40.67,24.13
74.25,-243.0,-253.01960784313727,-126.0,0.2,72.73,64.66
74.3,193.50980392156862,-253.01960784313727,58.0,12.73,43.68,51.68
74.35,-100.0,-302.01960784313724,73.0,51.58,64.12,51.4
74.4,-116.0,-220.01960784313727,-233.0,50.63,102.23,36.49
74.45,-68.0,307.4901960784314,301.5098039215686,-76.79,125.4,22.35
74.5,-179.0,79.49019607843137,-79.0,-79.73,145.04,42.37
74.55,-211.0,-57.01960784313726,243.0,17.03,130.69,35.82
74.6,-84.0,-155.01960784313727,273.0,-0.35,91.63,42.05
74.65,74.0,46.490196078431374,212.0,35.76,77.21,40.3
74.7,90.0,193.49019607843138,289.0,40.13,69.79,31.06
74.75,11.0,95.49019607843137,-215.50980392156862,13.15,54.98,20.98
74.8,74.0,46.490196078431374,289.0,8.53,36.12,13.14
74.85,-298.5098039215686,30.49019607843137,243.0,14.37,31.43,4.25
74.9,-266.5098039215686,111.49019607843137,120.0,-61.74,18.62,-17.37
74.95,313.0,30.49019607843137,273.0,-13.48,-8.04,5.69
75.0,281.0,-204.01960784313727,304.0,-6.76,-8.81,20.56
75.05,297.0,-286.01960784313724,89.0,-16.1,1.05,22.49
75.1,-313.5098039215686,193.49019607843138,73.0,-19.5,6.26,18.01
75.15,313.0,144.49019607843138,58.0,-19.11,4.41,19.02
75.2,281.0,209.49019607843138,120.0,-16.84,14.63,20.21
75.25,281.0,193.49019607843138,89.0,-42.46,24.08,-25.45
75.3,313.0,193.49019607843138,-138.50980392156862,-19.74,17.22,-33.85
75.35,201.0,-220.01960784313727,-215.50980392156862,20.01,-12.98,-11.14
75.4,90.0,291.4901960784314,-276.5098039215686,44.4,-26.84,2.43
75.45,58.0,-318.01960784313724,-215.50980392156862,27.53,-27.12,-0.99
75.5,27.0,226.49019607843138,-153.50980392156862,48.08,-22.08,0.3
75.55,-84.0,-286.01960784313724,289.0,54.52,-33.14,-13.66
75.6,-131.0,177.49019607843138,258.0,58.96,-29.15,-30.42
75.65,-36.0,79.49019607843137,104.0,57.56,-26.52,-62.48
75.7,11.0,-84.50980392156863,166.0,65.09,-24.42,-94.19
75.75,-52.0,46.490196078431374,166.0,171.24,-30.34,-127.58
75.8,-131.0,111.49019607843137,27.0,210.83,-63.73,-163.42
75.85,-84.0,-2.5098039215686274,-33.0,-31.47,-74.93,-180.85
75.9,272.5098039215686,-67.50980392156863,-3.0,24.84,-26.49,-133.18
75.95,-236.49019607843138,-8.019607843137255,163.50980392156862,28.09,-8.88,-123.73
76.0,97.50980392156863,291.4901960784314,178.50980392156862,52.7,0.63,-140.92
76.05,18.50980392156863,128.49019607843138,55.509803921568626,67.47,-17.32,-177.32
76.1,-172.49019607843138,-51.509803921568626,86.50980392156863,45.28,1.54,-199.09
76.15,-117.98039215686275,13.490196078431373,-113.49019607843137,-56.18,75.11,-161.99
76.2,120.01960784313725,-116.50980392156863,162.50980392156862,-3.43,25.09,-45.33
76.25,304.5098039215686,111.49019607843137,55.509803921568626,-42.04,34.96,-0.95
76.3,-299.4901960784314,-84.50980392156863,270.5098039215686,-38.99,30.48,28.44
76.35,247.01960784313727,-84.50980392156863,255.50980392156862,-13.58,6.61,58.92
76.4,-45.490196078431374,-100.50980392156863,255.50980392156862,11.64,0.77,61.06
76.45,49.509803921568626,-214.50980392156862,224.50980392156862,-0.14,-5.7,39.04
76.5,2.5098039215686274,-296.5098039215686,286.5098039215686,12.2,-11.61,20.32
76.55,-93.49019607843137,-263.5098039215686,270.5098039215686,61.48,-20.5,12.62
76.6,-61.490196078431374,-247.50980392156862,147.50980392156862,78.18,-27.57,8.59
76.65,18.50980392156863,313.0,147.50980392156862,84.23,-29.95,-6.66
76.7,-29.49019607843137,-312.5098039215686,86.50980392156863,44.44,-34.19,-30.07
76.75,-156.49019607843138,248.0,116.50980392156863,48.67,-54.07,-45.23
76.8,311.01960784313724,-280.5098039215686,9.509803921568627,55.53,-53.68,-36.9
76.85,-38.98039215686274,-214.50980392156862,-52.490196078431374,31.17,-17.84,15.94
76.9,295.01960784313724,-247.50980392156862,-21.49019607843137,68.55,-13.26,68.55
76.95,-93.49019607843137,-263.5098039215686,101.50980392156863,11.92,5.0,64.52
77.0,-299.4901960784314,232.0,255.50980392156862,32.36,10.92,49.02
77.05,295.01960784313724,281.0,270.5098039215686,24.45,16.45,53.18
77.1,311.01960784313724,313.0,-295.0,-21.18,22.68,62.77
77.15,311.01960784313724,232.0,-233.0,-6.79,7.91,60.39
77.2,-188.49019607843138,264.0,-279.0,20.88,-5.1,31.55
77.25,-188.49019607843138,264.0,-249.0,19.73,-9.3,1.91
77.3,-156.49019607843138,248.0,-279.0,6.6,-10.67,-14.99
77.35,-156.49019607843138,248.0,-264.0,-8.3,-16.23,-34.17
77.4,-188.49019607843138,281.0,316.5098039215686,18.4,-23.3,-60.07
77.45,-236.49019607843138,313.0,255.50980392156862,44.79,-16.93,-62.03
77.5,-299.4901960784314,-296.5098039215686,147.50980392156862,24.91,-14.66,-57.48
77.55,-315.4901960784314,281.0,147.50980392156862,-31.71,-9.51,-58.04
77.6,41.01960784313726,297.0,132.50980392156862,-68.15,8.29,-28.99
77.65,247.01960784313727,313.0,86.50980392156863,36.91,3.92,19.51
77.7,145.50980392156862,-263.5098039215686,-67.49019607843137,18.71,23.76,23.47
77.75,-124.49019607843137,183.0,163.50980392156862,-103.57,41.96,7.23
77.8,231.01960784313727,133.0,239.50980392156862,-93.03,25.37,24.55
77.85,-172.49019607843138,281.0,162.50980392156862,8.77,-1.01,39.71
77.9,-61.490196078431374,297.0,86.50980392156863,61.55,-7.17,18.22
77.95,-61.490196078431374,215.0,163.50980392156862,-11.06,-8.5,-4.52
78.0,-93.49019607843137,101.0,255.50980392156862,-22.12,-13.43,-19.82
78.05,-93.49019607843137,199.0,178.50980392156862,14.3,-17.95,-22.34
78.1,-156.49019607843138,281.0,86.50980392156863,15.0,-19.94,-22.27
78.15,-204.49019607843138,232.0,101.50980392156863,6.22,-14.73,-17.4
78.2,-172.49019607843138,232.0,116.50980392156863,-15.68,-16.69,-8.34
78.25,-124.49019607843137,232.0,132.50980392156862,5.94,-28.97,-32.56
78.3,-220.49019607843138,297.0,86.50980392156863,30.02,-30.72,-56.74
78.35,168.01960784313727,-247.50980392156862,55.509803921568626,-8.19,-5.07,-15.76
78.4,200.01960784313727,-280.5098039215686,178.50980392156862,-3.22,-4.19,53.22
78.45,-156.49019607843138,-263.5098039215686,239.50980392156862,52.45,-1.88,75.06
78.5,-204.49019607843138,-247.50980392156862,209.50980392156862,45.38,12.53,68.93
78.55,231.01960784313727,297.0,-310.0,-15.72,25.86,57.66
78.6,168.01960784313727,215.0,-187.0,-43.58,23.27,55.84
78.65,295.01960784313724,248.0,-156.0,-17.33,4.13,53.64
78.7,-236.49019607843138,264.0,-233.0,35.41,-10.95,36.28
78.75,-220.49019607843138,297.0,-264.0,48.18,-17.21,11.11
78.8,-188.49019607843138,232.0,-279.0,28.9,-15.81,-20.48
78.85,-220.49019607843138,199.0,-249.0,2.26,-15.67,-52.75
78.9,-236.49019607843138,199.0,-295.0,17.07,-19.91,-69.24
78.95,-252.49019607843138,281.0,286.5098039215686,36.53,-17.18,-73.82
79.0,-315.4901960784314,313.0,224.50980392156862,19.69,-8.67,-67.56
79.05,216.01960784313727,-312.5098039215686,193.50980392156862,-48.51,0.8,-50.16
79.1,41.01960784313726,281.0,224.50980392156862,-40.67,6.93,-0.99
79.15,311.01960784313724,-263.5098039215686,132.50980392156862,72.89,5.95,50.84
79.2,34.509803921568626,-214.50980392156862,24.50980392156863,22.53,26.84,48.6
79.25,-108.49019607843137,183.0,209.50980392156862,-79.42,37.24,29.03
79.3,295.01960784313724,117.0,301.5098039215686,-75.11,22.5,34.25
79.35,-315.4901960784314,264.0,209.50980392156862,35.02,-4.68,53.36
79.4,-156.49019607843138,297.0,101.50980392156863,64.46,-7.45,40.83
79.45,-156.49019607843138,199.0,132.50980392156862,8.53,-5.31,15.77
79.5,-172.49019607843138,117.0,224.50980392156862,-4.94,-14.45,-2.67
79.55,-156.49019607843138,117.0,147.50980392156862,26.03,-24.63,-17.09
79.6,-124.49019607843137,199.0,86.50980392156863,30.3,-26.0,-28.92
79.65,-124.49019607843137,183.0,147.50980392156862,9.72,-21.41,-34.34
79.7,-156.49019607843138,199.0,147.50980392156862,5.27,-14.94,-26.43
79.75,-140.49019607843138,264.0,163.50980392156862,-1.19,-18.65,-23.7
79.8,-172.49019607843138,281.0,209.50980392156862,-14.04,-19.56,-47.29
79.85,120.01960784313725,-296.5098039215686,147.50980392156862,-29.05,-6.4,-22.06
79.9,216.01960784313727,-263.5098039215686,224.50980392156862,18.82,-11.12,38.45
79.95,-220.49019607843138,-247.50980392156862,209.50980392156862,61.38,-15.95,65.19
80.0,-188.49019607843138,-231.50980392156862,255.50980392156862,58.4,-2.72,69.18
80.05,263.01960784313724,297.0,-310.0,36.18,9.41,50.14
80.1,216.01960784313727,264.0,-264.0,-11.8,23.9,34.67
80.15,247.01960784313727,232.0,-187.0,-41.51,18.69,43.03
80.2,311.01960784313724,248.0,-172.0,-0.04,4.37,45.94
80.25,-299.4901960784314,-312.5098039215686,-249.0,40.94,-4.58,34.67
80.3,-283.4901960784314,313.0,-233.0,36.91,-6.71,14.47
80.35,-283.4901960784314,232.0,-218.0,5.55,-12.66,-15.13
80.4,-236.49019607843138,232.0,-249.0,33.27,-26.59,-39.59
80.45,-220.49019607843138,313.0,-310.0,58.3,-28.55,-49.08
80.5,-299.4901960784314,297.0,286.5098039215686,64.39,-20.71,-43.76
80.55,-283.4901960784314,-312.5098039215686,255.50980392156862,17.56,0.94,-30.46
80.6,-299.4901960784314,264.0,239.50980392156862,-45.26,18.72,-23.46
80.65,295.01960784313724,264.0,255.50980392156862,-101.99,34.51,-16.39
80.7,216.01960784313727,281.0,286.5098039215686,-64.82,20.02,0.89
80.75,-188.49019607843138,-280.5098039215686,224.50980392156862,13.92,11.16,11.18
80.8,-220.49019607843138,-280.5098039215686,178.50980392156862,8.21,11.72,12.9
80.85,-252.49019607843138,232.0,239.50980392156862,-28.53,10.71,13.46
80.9,-188.49019607843138,199.0,224.50980392156862,1.0,-2.44,10.66
80.95,-172.49019607843138,215.0,147.50980392156862,33.87,-12.07,2.64
81.0,-252.49019607843138,215.0,55.509803921568626,38.91,-18.26,-2.67
81.05,-156.49019607843138,166.0,86.50980392156863,39.61,-20.36,-10.96
81.1,-93.49019607843137,183.0,86.50980392156863,32.47,-13.57,-24.16
81.15,-156.49019607843138,199.0,55.509803921568626,-18.38,-13.5,-13.13
81.2,-220.49019607843138,199.0,116.50980392156863,-144.97,-8.74,25.08
81.25,-283.4901960784314,281.0,224.50980392156862,-150.43,-33.28,86.54
81.3,-188.49019607843138,-35.509803921568626,286.5098039215686,-97.34,-90.57,119.02
81.35,-93.49019607843137,-18.50980392156863,-203.0,25.61,-109.02,117.48
81.4,-124.49019607843137,160.49019607843138,-64.0,83.99,-106.85,100.26
81.45,-172.49019607843138,79.49019607843137,-64.0,201.24,-65.06,81.32
81.5,-204.49019607843138,275.4901960784314,43.0,84.79,-72.09,92.56
81.55,-29.49019607843137,-280.5098039215686,73.0,70.79,-70.94,67.01
81.6,-124.49019607843137,-116.50980392156863,-64.0,105.65,-80.74,32.29
81.65,-204.49019607843138,-133.50980392156862,-110.0,86.12,-38.84,23.96
81.7,231.01960784313727,-182.50980392156862,-126.0,-6.58,-10.81,17.55
81.75,-252.49019607843138,-198.50980392156862,224.50980392156862,-28.88,-4.09,3.41
81.8,-124.49019607843137,144.49019607843138,-249.0,-19.46,-10.28,16.68
81.85,-93.49019607843137,-286.01960784313724,-95.0,47.27,21.45,3.62
81.9,-140.49019607843138,275.4901960784314,-249.0,-33.08,25.3,-4.35
81.95,272.5098039215686,-214.50980392156862,-18.0,69.74,11.09,-26.64
82.0,161.50980392156862,-318.01960784313724,-203.0,-5.01,14.45,-39.42
82.05,161.50980392156862,-67.50980392156863,-95.0,-25.34,28.14,-31.58
82.1,-13.490196078431373,160.49019607843138,86.50980392156863,-11.52,23.62,-12.61
82.15,-45.490196078431374,193.49019607843138,163.50980392156862,-0.56,25.02,3.31
82.2,-140.49019607843138,128.49019607843138,301.5098039215686,-23.28,5.88,3.83
82.25,2.5098039215686274,30.49019607843137,-33.0,-15.3,9.69,-3.65
82.3,18.50980392156863,128.49019607843138,-141.0,4.61,6.19,-16.84
82.35,65.50980392156863,-84.50980392156863,-126.0,3.73,5.77,-30.18
82.4,49.509803921568626,13.490196078431373,286.5098039215686,50.84,-15.15,-44.91
82.45,113.50980392156863,13.490196078431373,-95.0,-32.66,1.68,-29.48
82.5,34.509803921568626,-231.50980392156862,-279.0,-37.17,5.53,-10.93
82.55,-140.49019607843138,193.49019607843138,163.50980392156862,-109.06,24.71,12.41
82.6,-299.4901960784314,46.490196078431374,101.50980392156863,-73.54,18.09,22.31
82.65,-315.4901960784314,95.49019607843137,-279.0,-17.36,12.81,20.04
82.7,2.5098039215686274,177.49019607843138,-95.0,-72.24,-22.15,13.84
82.75,129.50980392156862,-35.509803921568626,181.0,-15.26,-5.94,-5.71
82.8,224.50980392156862,62.490196078431374,270.5098039215686,51.58,12.63,-26.89
82.85,-140.49019607843138,79.49019607843137,-126.0,62.99,4.58,-37.07
82.9,49.509803921568626,-2.5098039215686274,-64.0,18.71,-19.7,-12.96
82.95,-13.490196078431373,30.49019607843137,-172.0,34.01,-1.6,-12.15
83.0,-93.49019607843137,-286.01960784313724,163.50980392156862,-78.86,7.38,7.05
83.05,-236.49019607843138,95.49019607843137,147.50980392156862,-71.23,-10.14,23.96
83.1,-252.49019607843138,160.49019607843138,-264.0,-42.56,-26.52,9.12
83.15,-124.49019607843137,30.49019607843137,89.0,-6.76,6.09,-7.95
83.2,-61.490196078431374,79.49019607843137,-126.0,4.29,1.89,-13.9
83.25,34.509803921568626,-165.50980392156862,-33.0,93.79,9.52,-27.41
83.3,81.50980392156863,193.49019607843138,58.0,42.79,-0.13,-4.31
83.35,18.50980392156863,62.490196078431374,-141.0,84.16,8.89,12.62
83.4,-13.490196078431373,177.49019607843138,-310.0,13.15,4.55,17.38
83.45,-124.49019607843137,-84.50980392156863,-156.0,-3.82,17.92,11.74
83.5,-283.4901960784314,-149.50980392156862,224.50980392156862,-118.09,27.09,23.43
83.55,-108.49019607843137,-149.50980392156862,132.50980392156862,-27.51,15.22,23.54
83.6,34.509803921568626,258.4901960784314,-203.0,-14.35,18.76,13.7
83.65,224.50980392156862,46.490196078431374,12.0,-17.54,-17.91,13.25
83.7,193.50980392156862,-67.50980392156863,304.0,63.51,-7.55,-12.82
83.75,49.509803921568626,-2.5098039215686274,-141.0,51.37,6.05,-15.16
83.8,-156.49019607843138,13.490196078431373,301.5098039215686,-2.7,3.36,-7.71
83.85,-13.490196078431373,-2.5098039215686274,-280.0,63.44,-4.4,0.72
83.9,34.509803921568626,258.4901960784314,-64.0,-58.73,7.42,2.82
83.95,-13.490196078431373,-149.50980392156862,9.509803921568627,-41.83,3.11,30.96
84.0,-188.49019607843138,275.4901960784314,224.50980392156862,12.34,-14.34,18.53
84.05,2.5098039215686274,-2.5098039215686274,-18.0,-13.3,-6.19,-5.43
84.1,-45.490196078431374,-67.50980392156863,-126.0,-42.32,-5.49,-0.01
84.15,49.509803921568626,-198.50980392156862,27.0,54.69,3.74,-32.28
84.2,81.50980392156863,226.49019607843138,-203.0,8.67,28.66,-16.28
84.25,-77.49019607843137,95.49019607843137,-295.0,37.19,18.02,18.67
84.3,97.50980392156863,-236.01960784313727,-264.0,-101.89,38.01,41.46
84.35,-61.490196078431374,-116.50980392156863,116.50980392156863,-8.51,29.61,22.07
84.4,18.50980392156863,226.49019607843138,255.50980392156862,-32.94,-8.08,14.44
84.45,129.50980392156862,-2.5098039215686274,89.0,-14.39,-4.05,22.45
84.5,-61.490196078431374,144.49019607843138,89.0,17.24,29.78,14.09
84.55,-77.49019607843137,144.49019607843138,-218.0,-102.45,60.76,21.93
84.6,2.5098039215686274,79.49019607843137,-233.0,-198.56,34.33,45.8
84.65,193.50980392156862,242.49019607843138,-95.0,-126.18,20.72,45.83
84.7,320.5098039215686,-220.01960784313727,-3.0,-24.4,-17.04,46.01
84.75,-275.0,-236.01960784313727,27.0,-2.91,-30.06,51.08
84.8,240.50980392156862,242.49019607843138,89.0,-62.23,-36.85,39.39
84.85,256.5098039215686,-18.50980392156863,243.0,-13.79,2.1,30.05
84.9,18.50980392156863,-269.01960784313724,89.0,-95.62,23.9,11.25
84.95,113.50980392156863,30.49019607843137,181.0,-47.74,12.53,14.65
85.0,224.50980392156862,307.4901960784314,320.0,-77.88,5.81,51.05
85.05,-306.0,-286.01960784313724,-307.5098039215686,-75.32,16.24,91.3
85.1,-290.0,-89.01960784313725,289.0,-116.83,10.71,139.7
85.15,-227.0,24.980392156862745,-215.50980392156862,-52.19,-7.97,178.73
85.2,-84.0,106.98039215686275,-199.50980392156862,-66.96,-39.96,162.59
85.25,154.0,209.49019607843138,-138.50980392156862,-77.7,-92.5,137.11
85.3,265.0,-51.509803921568626,307.4901960784314,-28.25,-132.12,98.37
85.35,-218.50980392156862,-67.50980392156863,246.49019607843138,21.41,-141.39,65.78
85.4,-123.50980392156863,-182.50980392156862,320.0,45.49,-193.51,77.89
85.45,194.49019607843138,-84.50980392156863,169.49019607843138,54.66,-151.37,71.66
85.5,-154.50980392156862,-231.50980392156862,-246.50980392156862,101.07,-103.21,63.72
85.55,-27.50980392156863,-35.509803921568626,196.0,34.88,-84.06,37.5
85.6,-91.50980392156863,-247.50980392156862,243.0,74.29,-97.85,28.51
85.65,194.49019607843138,-84.50980392156863,58.0,87.1,-82.49,20.25
85.7,131.49019607843138,-296.5098039215686,120.0,89.83,-95.19,15.52
85.75,210.49019607843138,313.0,-18.0,68.87,-85.08,-2.14
85.8,178.49019607843138,183.0,-49.0,33.87,-94.81,-19.12
85.85,210.49019607843138,248.0,-249.0,38.28,-83.92,-24.72
85.9,115.49019607843137,-231.50980392156862,116.50980392156863,105.34,-89.49,-9.39
85.95,147.49019607843138,-133.50980392156862,39.509803921568626,42.76,-82.17,-7.92
86.0,67.49019607843137,117.0,147.50980392156862,-45.43,-67.02,9.33
86.05,-107.50980392156863,150.0,-218.0,-2.66,-37.9,43.31
86.1,-154.50980392156862,-296.5098039215686,147.50980392156862,-10.36,-20.75,44.54
86.15,-11.509803921568627,183.0,55.509803921568626,0.02,-21.34,35.05
86.2,-11.509803921568627,-182.50980392156862,116.50980392156863,72.4,-6.43,-14.81
86.25,-266.5098039215686,-67.50980392156863,282.01960784313724,104.25,73.29,-66.65
86.3,122.0,-18.50980392156863,-224.98039215686273,125.43,131.46,-103.78
86.35,42.0,-67.50980392156863,309.52941176470586,134.18,112.17,-99.16
86.4,147.49019607843138,-231.50980392156862,-221.49019607843138,119.62,-13.22,31.38
86.45,86.47058823529412,242.49019607843138,27.0,124.31,12.67,53.71
86.5,28.980392156862745,183.0,-129.49019607843138,80.91,33.07,54.27
86.55,-170.50980392156862,101.0,70.50980392156863,93.51,-29.78,45.94
86.6,-107.50980392156863,264.0,-264.0,85.91,-34.5,28.72
86.65,-154.50980392156862,-29.0,193.50980392156862,115.0,-37.83,27.7
86.7,-11.509803921568627,-111.0,-310.0,2.89,-16.44,-8.34
86.75,-266.5098039215686,-72.49019607843137,-233.0,39.64,-10.25,26.72
86.8,178.49019607843138,183.0,-6.490196078431373,48.5,-11.05,38.03
