rel_time,acc_x,acc_y,acc_z,gyro_x,gyro_y,gyro_z
600.0,-243.0,172.50980392156862,-175.49019607843138,6.85,4.73,-1.9
600.05,-211.0,139.50980392156862,-236.49019607843138,5.41,4.06,-4.35
600.1,-243.0,156.50980392156862,-252.49019607843138,2.89,0.21,-5.54
600.15,-275.0,139.50980392156862,-221.49019607843138,-1.33,-1.74,-3.68
600.2,-306.0,205.50980392156862,-221.49019607843138,-4.31,-1.25,-0.39
600.25,320.5098039215686,156.50980392156862,-267.4901960784314,0.79,-2.16,-2.14
600.3,-275.0,156.50980392156862,-283.4901960784314,-6.83,0.56,-3.09
600.35,-290.0,205.50980392156862,-283.4901960784314,4.08,-2.05,-2.25
600.4,-243.0,188.50980392156862,-267.4901960784314,-2.31,0.32,1.24
600.45,-259.0,156.50980392156862,-267.4901960784314,-1.19,-0.02,0.44
600.5,-275.0,205.50980392156862,-236.49019607843138,-5.29,3.71,1.91
600.55,-259.0,172.50980392156862,-283.4901960784314,-3.36,4.66,1.42
600.6,-290.0,188.50980392156862,-267.4901960784314,-3.47,2.42,-2.88
600.65,-290.0,237.50980392156862,-267.4901960784314,-5.11,0.95,-0.5
600.7,-227.0,188.50980392156862,-252.49019607843138,1.07,-0.83,0.33
600.75,-275.0,221.50980392156862,-283.4901960784314,5.62,-1.49,-1.51
600.8,-259.0,205.50980392156862,-267.4901960784314,0.69,0.42,-2.91
600.85,-243.0,172.50980392156862,-252.49019607843138,5.62,2.66,-2.84
600.9,-259.0,188.50980392156862,-298.4901960784314,-0.42,3.61,-3.44
600.95,-259.0,237.50980392156862,-252.49019607843138,4.19,1.47,-1.76
601.0,-259.0,205.50980392156862,-267.4901960784314,2.82,-0.55,0.79
601.05,-259.0,156.50980392156862,-236.49019607843138,-7.21,-0.3,0.05
601.1,-259.0,156.50980392156862,-236.49019607843138,0.65,-1.04,-2.42
601.15,-243.0,172.50980392156862,-283.4901960784314,0.51,1.33,-2.7
601.2,-211.0,188.50980392156862,-267.4901960784314,3.8,0.84,-2.04
601.25,-227.0,286.5098039215686,-298.4901960784314,-3.96,1.09,2.75
601.3,168.01960784313727,-214.50980392156862,-129.49019607843138,6.67,-3.24,3.94
601.35,11.0,112.01960784313725,-129.49019607843138,-2.66,-0.27,2.68
601.4,122.0,-268.4901960784314,-70.98039215686275,1.67,-0.34,1.98
601.45,-133.98039215686273,-149.50980392156862,313.01960784313724,-1.96,0.32,0.51
601.5,311.01960784313724,205.50980392156862,-283.4901960784314,1.28,-0.37,-0.53
601.55,-59.509803921568626,14.019607843137255,313.01960784313724,3.0,0.63,-0.5
601.6,49.509803921568626,133.0,313.01960784313724,0.34,3.82,0.61
601.65,-236.49019607843138,-94.0,-175.49019607843138,4.75,5.01,-2.56
601.7,-186.50980392156862,-50.98039215686274,-313.4901960784314,12.38,6.37,-5.15
601.75,-147.0,286.5098039215686,267.01960784313724,8.84,8.19,-6.41
601.8,295.01960784313724,313.0,-175.49019607843138,16.93,9.0,-4.87
601.85,11.0,194.01960784313727,-252.49019607843138,18.01,8.79,-1.02
601.9,313.0,-236.49019607843138,298.01960784313724,36.18,10.68,-5.05
601.95,-236.49019607843138,264.0,313.01960784313724,36.77,14.21,-11.17
602.0,208.50980392156862,-170.49019607843138,313.01960784313724,24.87,19.53,-17.72
602.05,-107.50980392156863,-17.980392156862745,190.01960784313727,7.65,32.24,-26.99
602.1,-77.49019607843137,84.0,221.01960784313727,32.12,25.1,-28.01
602.15,-29.49019607843137,123.50980392156863,-144.49019607843138,29.77,32.1,-30.25
602.2,-27.50980392156863,-132.98039215686273,282.01960784313724,30.54,31.5,-29.13
602.25,304.5098039215686,-111.0,-190.49019607843138,35.06,27.23,-26.64
602.3,145.50980392156862,-274.0,-175.49019607843138,25.19,25.06,-23.14
602.35,138.0,-187.49019607843138,-113.49019607843137,25.4,21.21,-10.37
602.4,-20.0,58.509803921568626,-83.49019607843137,39.68,14.46,-4.52
602.45,11.0,-89.49019607843137,-21.49019607843137,32.57,14.42,-9.63
602.5,27.0,-138.49019607843138,-52.490196078431374,30.16,11.52,-15.55
602.55,58.0,-105.49019607843137,-21.49019607843137,30.58,14.88,-13.2
602.6,42.0,-154.49019607843138,-52.490196078431374,36.28,14.14,-15.79
602.65,42.0,-203.49019607843138,-21.49019607843137,36.32,13.76,-22.48
602.7,42.0,-203.49019607843138,-83.49019607843137,30.82,20.06,-29.76
602.75,42.0,-317.4901960784314,-113.49019607843137,33.31,11.48,-74.35
602.8,58.0,178.01960784313727,-37.490196078431374,1.81,19.78,-100.39
602.85,74.0,-230.98039215686273,9.509803921568627,23.58,22.12,-130.84
602.9,194.49019607843138,150.52941176470588,-283.4901960784314,-22.82,47.22,-136.86
602.95,-211.0,254.50980392156862,313.01960784313724,72.4,68.25,-140.04
603.0,-306.0,303.5098039215686,298.01960784313724,14.55,115.47,-126.95
603.05,290.4901960784314,-197.98039215686273,-313.4901960784314,38.87,143.19,-119.01
603.1,201.0,-45.0,-313.4901960784314,31.91,183.54,-94.47
603.15,161.50980392156862,-133.50980392156862,239.50980392156862,10.24,208.74,-77.78
603.2,35.490196078431374,-105.49019607843137,-187.0,18.26,214.03,-56.46
603.25,-43.509803921568626,-176.0,-64.0,22.95,217.6,-23.88
603.3,34.509803921568626,-302.01960784313724,289.0,22.7,212.24,3.76
603.35,106.0,-176.0,-92.50980392156863,24.63,215.71,42.05
603.4,-320.01960784313724,-72.49019607843137,-261.5098039215686,87.49,217.7,96.41
603.45,-227.0,-182.50980392156862,-138.50980392156862,135.58,213.92,98.33
603.5,224.50980392156862,84.0,184.49019607843138,174.43,202.16,85.0
603.55,-91.50980392156863,-105.49019607843137,261.4901960784314,92.7,214.41,-12.99
603.6,-267.4901960784314,-67.50980392156863,-227.01960784313727,40.03,171.5,17.34
603.65,269.52941176470586,-106.01960784313725,-254.52941176470588,-19.43,89.99,0.79
603.7,311.01960784313724,-274.0,-204.0392156862745,-177.77,-152.38,-25.07
603.75,-127.47058823529412,101.0,64.94117647058823,-248.82,258.33,-146.97
603.8,155.54901960784315,-84.50980392156863,160.4313725490196,-308.88,210.35,-245.85
603.85,-9.96078431372549,232.0,210.9607843137255,-249.24,200.06,-241.12
603.9,15.529411764705882,242.49019607843138,261.4901960784314,-140.81,249.06,-181.62
603.95,79.52941176470588,-171.01960784313727,209.50980392156862,-33.39,-307.53,-120.9
604.0,34.509803921568626,30.49019607843137,-132.98039215686273,-212.17,-162.84,-84.5
604.05,-243.0,-62.0,-101.98039215686275,-96.5,-143.1,-58.53
604.1,-139.50980392156862,-280.5098039215686,-86.98039215686275,-34.13,-106.67,-26.43
604.15,-123.50980392156863,248.0,82.01960784313725,-36.96,-69.6,-3.16
604.2,-234.50980392156862,183.0,252.01960784313727,-34.65,-36.91,-17.51
604.25,122.0,150.0,144.01960784313727,-19.11,-36.6,-42.92
604.3,320.5098039215686,101.0,205.01960784313727,-8.37,-20.6,-52.72
604.35,97.50980392156863,52.0,155.52941176470588,22.18,34.62,-17.93
604.4,58.0,52.0,-194.98039215686273,12.27,97.44,18.85
604.45,-75.50980392156863,133.0,63.529411764705884,74.71,134.93,29.98
604.5,224.50980392156862,24.980392156862745,-255.98039215686273,123.99,178.4,34.56
604.55,208.50980392156862,160.49019607843138,36.01960784313726,99.91,233.59,45.34
604.6,-298.5098039215686,-241.0,159.01960784313727,84.58,285.46,85.87
604.65,-273.01960784313724,-154.49019607843138,-36.490196078431374,57.56,306.11,113.31
604.7,-91.50980392156863,123.50980392156863,-141.0,121.54,311.43,142.89
604.75,304.5098039215686,-100.50980392156863,181.0,117.41,314.3,133.51
604.8,88.01960784313725,-253.01960784313727,138.49019607843138,112.2,302.86,123.74
604.85,-245.98039215686273,-204.01960784313727,-258.01960784313724,130.47,289.52,167.35
604.9,247.01960784313727,183.0,-196.01960784313727,170.65,246.51,146.28
604.95,-100.0,-23.49019607843137,-258.01960784313724,113.46,186.03,140.09
605.0,106.0,9.509803921568627,-42.01960784313726,113.88,96.5,70.19
605.05,184.01960784313727,117.0,-284.52941176470586,-29.26,14.35,38.59
605.1,-139.94117647058823,236.98039215686273,-35.03921568627451,-45.68,-105.2,-83.34
605.15,-120.96078431372548,95.49019607843137,307.45098039215685,-272.34,-184.37,-154.85
605.2,181.0392156862745,30.49019607843137,137.45098039215685,326.08,-274.11,-293.2
605.25,253.52941176470588,-29.0,56.96078431372549,-282.03,307.09,-315.01
605.3,-77.49019607843137,117.0,261.4901960784314,-188.13,283.18,-264.33
605.35,-86.98039215686275,62.490196078431374,-138.50980392156862,-70.11,249.58,-230.59
605.4,-276.98039215686276,-307.52941176470586,-310.0,-64.54,319.97,-165.66
605.45,25.019607843137255,209.49019607843138,-190.49019607843138,-101.4,-208.17,-87.93
605.5,233.0,133.0,98.01960784313725,-54.78,-156.47,-43.93
605.55,249.0,-263.5098039215686,82.01960784313725,-16.0,-131.24,-32.0
605.6,265.0,166.0,159.01960784313727,-20.41,-92.04,-39.49
605.65,265.0,35.0,21.019607843137255,9.12,-61.83,-46.28
605.7,42.0,52.0,-70.98039215686275,-43.19,-30.44,-57.44
605.75,-306.0,183.0,-147.98039215686273,18.85,-5.83,-27.69
605.8,304.5098039215686,-247.50980392156862,17.529411764705884,-15.12,46.03,-23.7
605.85,288.5098039215686,-296.5098039215686,-101.98039215686275,27.5,83.2,6.56
605.9,281.0,248.0,-317.98039215686276,83.18,103.18,27.18
605.95,-75.50980392156863,-263.5098039215686,-193.98039215686273,52.38,137.9,36.24
606.0,-170.50980392156862,183.0,298.01960784313724,56.23,170.7,69.28
606.05,67.49019607843137,183.0,-206.49019607843138,18.82,189.74,97.84
606.1,-27.50980392156863,84.0,-141.0,7.34,186.27,110.76
606.15,-43.509803921568626,-62.0,12.0,67.19,142.91,87.24
606.2,51.490196078431374,-307.0,181.0,74.89,130.94,66.27
606.25,-107.50980392156863,-258.0,104.0,86.19,126.11,60.67
606.3,-123.50980392156863,-225.0,104.0,74.36,125.55,62.95
606.35,-170.50980392156862,-258.0,89.0,89.17,128.28,62.49
606.4,-202.50980392156862,-241.0,73.0,76.18,138.92,57.35
606.45,-234.50980392156862,303.5098039215686,181.0,44.16,157.54,54.79
606.5,249.0,254.50980392156862,243.0,59.35,167.65,69.6
606.55,297.0,270.5098039215686,-307.5098039215686,93.79,182.6,85.91
606.6,233.0,303.5098039215686,-246.50980392156862,104.11,180.53,90.98
606.65,-36.0,-241.0,107.49019607843137,122.28,178.68,100.08
606.7,208.50980392156862,-143.0,-289.01960784313724,116.64,154.77,118.28
606.75,2.5098039215686274,133.0,-12.019607843137255,135.37,115.64,92.63
606.8,-220.49019607843138,-62.0,218.98039215686273,14.58,69.69,32.32
606.85,104.01960784313725,101.0,-69.52941176470588,12.41,-31.59,-6.13
606.9,168.01960784313727,-78.0,-312.03921568627453,-162.82,-120.21,-83.83
606.95,57.01960784313726,-62.0,-66.03921568627452,-294.21,-205.72,-164.72
607.0,-223.47058823529412,232.0,-12.058823529411764,310.75,324.55,-291.07
607.05,197.0392156862745,-214.50980392156862,153.45098039215685,-254.38,246.08,325.2
607.1,245.0392156862745,307.4901960784314,110.98039215686275,-131.22,237.82,-234.96
607.15,190.52941176470588,-18.50980392156863,181.0,-53.76,302.19,-172.49
607.2,-204.49019607843138,46.490196078431374,5.019607843137255,-187.15,-197.32,-124.01
607.25,-306.0,-29.0,5.019607843137255,-70.42,-153.57,-60.98
607.3,-75.50980392156863,-263.5098039215686,-147.98039215686273,-10.78,-120.46,-19.5
607.35,-91.50980392156863,215.0,159.01960784313727,15.11,-104.71,-11.91
607.4,-123.50980392156863,84.0,-298.4901960784314,-66.57,-65.89,-13.73
607.45,154.0,19.0,-206.49019607843138,-4.06,-55.39,-25.21
607.5,106.0,232.0,-283.4901960784314,-9.7,-61.66,-31.51
607.55,-179.0,117.0,298.01960784313724,169.21,-58.12,-19.22
607.6,-68.0,-280.5098039215686,78.52941176470588,-180.08,52.29,-14.85
607.65,-306.0,58.509803921568626,-147.98039215686273,48.81,64.16,14.16
607.7,-266.5098039215686,-165.50980392156862,63.529411764705884,46.01,95.59,37.26
607.75,-107.50980392156863,166.0,-178.98039215686273,108.8,114.77,43.42
607.8,-27.50980392156863,35.0,82.01960784313725,74.92,156.21,35.96
607.85,-202.50980392156862,3.0,-190.49019607843138,27.92,175.84,48.35
607.9,-139.50980392156862,-45.0,193.50980392156862,13.04,175.35,65.29
607.95,-313.5098039215686,3.0,-279.0,45.59,160.34,80.34
608.0,19.49019607843137,-78.0,-126.0,40.45,163.7,85.21
608.05,-186.50980392156862,-225.0,-64.0,44.02,162.3,94.38
608.1,-139.50980392156862,-274.0,-33.0,47.52,170.56,93.5
608.15,-298.5098039215686,-307.0,120.0,69.74,172.9,85.84
608.2,265.0,286.5098039215686,135.0,56.58,186.48,84.47
608.25,170.0,254.50980392156862,243.0,96.38,184.49,116.6
608.3,249.0,221.50980392156862,-215.50980392156862,131.52,173.71,113.98
608.35,138.0,205.50980392156862,-153.50980392156862,165.08,170.94,122.1
608.4,-179.0,-241.0,123.49019607843137,155.91,168.0,112.37
608.45,129.50980392156862,-45.0,-196.01960784313727,101.59,163.73,74.57
608.5,311.01960784313724,-29.0,3.980392156862745,42.13,127.58,68.9
608.55,184.01960784313727,-62.0,-269.52941176470586,31.14,30.45,11.6
608.6,41.01960784313726,270.5098039215686,68.47058823529412,-49.95,-64.98,-52.54
608.65,-165.98039215686273,205.50980392156862,25.96078431372549,-224.18,-187.83,-156.0
608.7,-175.47058823529412,-307.0,-212.05882352941177,287.23,-275.44,-276.75
608.75,-231.9607843137255,-13.0,48.94117647058823,-283.12,272.79,279.7
608.8,-215.9607843137255,-187.01960784313727,-8.529411764705882,-156.63,216.05,-268.21
608.85,-111.47058823529412,-204.01960784313727,-123.50980392156863,-10.36,279.09,-191.39
608.9,88.01960784313725,-253.01960784313727,-194.98039215686273,-161.14,-231.83,-164.26
608.95,304.5098039215686,84.0,-224.98039215686273,-91.53,-174.15,-124.75
609.0,186.0,-280.5098039215686,-86.98039215686275,-13.79,-135.93,-57.06
609.05,-91.50980392156863,-312.5098039215686,-86.98039215686275,-21.56,-102.12,-24.75
609.1,-139.50980392156862,-312.5098039215686,144.01960784313727,-7.56,-70.48,0.02
609.15,-266.5098039215686,199.0,282.01960784313724,-1.12,-32.71,-9.28
609.2,201.0,117.0,221.01960784313727,-27.2,-20.88,-37.63
609.25,-211.0,133.0,206.01960784313727,97.85,-11.5,5.58
609.3,161.50980392156862,-100.50980392156863,5.019607843137255,-107.24,3.61,-12.96
609.35,-20.0,188.50980392156862,206.01960784313727,85.21,22.02,-27.17
609.4,233.0,-165.50980392156862,-317.98039215686276,16.37,74.34,-11.94
609.45,-170.50980392156862,150.0,-132.98039215686273,42.79,104.41,4.95
609.5,-123.50980392156863,199.0,-9.980392156862745,66.07,128.91,33.37
609.55,-154.50980392156862,248.0,206.01960784313727,109.64,152.85,55.11
609.6,-266.5098039215686,215.0,-206.49019607843138,32.43,195.2,85.14
609.65,-202.50980392156862,35.0,163.50980392156862,36.0,195.93,105.61
609.7,-250.50980392156862,19.0,-218.0,53.26,195.02,114.82
609.75,-250.50980392156862,-78.0,-141.0,63.83,200.17,114.71
609.8,-282.5098039215686,-176.0,-3.0,48.39,204.65,115.13
609.85,170.0,-258.0,135.0,55.04,207.66,120.38
609.9,106.0,237.50980392156862,304.0,92.42,190.37,132.56
609.95,138.0,139.50980392156862,-138.50980392156862,131.94,185.22,135.08
610.0,-20.0,237.50980392156862,0.49019607843137253,152.97,178.4,123.22
610.05,-227.0,286.5098039215686,200.49019607843138,134.88,189.6,123.71
610.1,224.50980392156862,-127.0,292.4901960784314,150.63,165.1,106.24
610.15,2.5098039215686274,-176.0,-73.01960784313725,108.03,135.98,61.48
610.2,247.01960784313727,35.0,64.98039215686275,96.34,69.62,59.13
610.25,231.01960784313727,-143.0,-284.52941176470586,13.99,-77.55,-7.29
610.3,279.01960784313724,303.5098039215686,-251.0392156862745,-45.01,-121.68,-75.19
610.35,-22.980392156862745,-258.0,-235.0392156862745,-240.94,-201.97,-160.69
610.4,79.52941176470588,-62.0,-105.05882352941177,-319.9,-294.83,-254.11
610.45,181.0392156862745,-263.5098039215686,-151.05882352941177,-253.05,256.09,-298.1
610.5,-41.96078431372549,-122.01960784313725,-23.529411764705884,-152.88,245.7,-152.22
610.55,174.52941176470588,193.49019607843138,258.0,4.61,261.45,-97.27
610.6,256.5098039215686,79.49019607843137,159.01960784313727,-166.71,-248.84,-95.66
610.65,224.50980392156862,-29.0,313.01960784313724,-124.95,-183.0,-110.12
610.7,106.0,297.0,159.01960784313727,-149.03,-136.45,-73.26
610.75,281.0,68.0,221.01960784313727,-30.0,-129.28,-27.62
610.8,-266.5098039215686,215.0,236.01960784313727,26.55,-115.87,-12.5
610.85,217.0,52.0,190.01960784313727,14.69,-57.07,-36.34
610.9,138.0,-45.0,-70.98039215686275,-54.92,7.25,-51.56
610.95,-179.0,-143.0,-86.98039215686275,73.8,10.57,18.92
611.0,-68.0,106.98039215686275,317.54901960784315,-51.0,66.22,15.98
611.05,65.50980392156863,-219.49019607843138,-40.98039215686274,91.48,45.71,-19.47
611.1,-154.50980392156862,297.0,-163.98039215686273,10.7,101.99,-5.47
611.15,-170.50980392156862,19.0,5.019607843137255,72.44,109.69,0.23
611.2,-59.509803921568626,68.0,267.01960784313724,68.48,127.33,16.75
611.25,19.49019607843137,35.0,-221.49019607843138,83.71,157.12,29.24
611.3,-250.50980392156862,68.0,132.50980392156862,25.85,177.14,49.72
611.35,-202.50980392156862,-13.0,-279.0,33.76,184.42,62.18
611.4,-218.50980392156862,-13.0,-141.0,20.46,182.67,73.48
611.45,-170.50980392156862,-209.0,58.0,47.48,172.03,80.52
611.5,-234.50980392156862,-176.0,212.0,18.29,170.24,99.31
611.55,-234.50980392156862,188.50980392156862,-276.5098039215686,93.3,156.7,124.69
611.6,-186.50980392156862,319.5098039215686,-138.50980392156862,90.53,166.25,119.96
611.65,265.0,221.50980392156862,15.490196078431373,98.13,181.83,101.27
611.7,58.0,303.5098039215686,92.49019607843137,75.83,207.83,144.78
611.75,42.0,221.50980392156862,215.49019607843138,154.51,203.7,156.36
611.8,-259.0,-209.0,-304.01960784313724,105.27,184.98,81.57
611.85,65.50980392156863,-160.0,-258.01960784313724,62.18,142.21,81.01
611.9,-220.49019607843138,-258.0,34.98039215686274,110.87,50.75,69.67
611.95,-29.49019607843137,-209.0,95.98039215686275,74.61,-25.82,26.55
612.0,-156.49019607843138,254.50980392156862,295.98039215686276,11.5,-62.46,-42.46
612.05,-54.98039215686274,254.50980392156862,222.47058823529412,-147.67,-141.11,-123.77
612.1,110.52941176470588,-307.0,-154.54901960784315,-268.35,-255.91,-205.67
612.15,-223.47058823529412,-192.0,48.94117647058823,-310.42,300.51,-299.89
612.2,-200.9607843137255,13.490196078431373,-169.54901960784315,-199.85,235.27,-268.25
612.25,149.0392156862745,-253.01960784313727,18.980392156862745,-63.67,263.3,-173.85
612.3,142.52941176470588,-286.01960784313724,-187.0,-88.9,-323.81,-170.21
612.35,65.50980392156863,-182.50980392156862,-55.98039215686274,-227.75,-184.68,-149.67
612.4,177.50980392156862,101.0,-193.98039215686273,-47.43,-163.4,-91.71
612.45,-266.5098039215686,-100.50980392156863,-178.98039215686273,30.93,-127.25,-35.08
612.5,-234.50980392156862,-312.5098039215686,5.019607843137255,14.16,-79.4,-11.31
612.55,-250.50980392156862,183.0,-24.980392156862745,-12.18,-25.05,-2.32
612.6,-266.5098039215686,68.0,113.01960784313725,8.84,-9.44,-4.91
612.65,233.0,183.0,236.01960784313727,-15.19,-25.26,-21.18
612.7,-179.0,166.0,298.01960784313724,66.1,-37.75,-11.63
612.75,304.5098039215686,-182.50980392156862,232.52941176470588,-50.47,34.34,-21.39
612.8,-243.0,-45.0,36.01960784313726,44.65,60.27,-13.69
612.85,-202.50980392156862,281.0,-193.98039215686273,51.4,91.7,-2.39
612.9,-27.50980392156863,133.0,-194.98039215686273,46.61,136.33,8.49
612.95,-186.50980392156862,133.0,144.01960784313727,57.95,165.41,24.87
613.0,-123.50980392156863,248.0,236.01960784313727,-3.01,203.07,65.92
613.05,217.0,68.0,193.50980392156862,-18.24,203.42,106.45
613.1,-234.50980392156862,52.0,-95.0,2.75,192.68,143.59
613.15,-139.50980392156862,-78.0,58.0,29.67,176.86,163.15
613.2,-266.5098039215686,-225.0,181.0,48.71,184.73,190.56
613.25,58.0,-209.0,-230.50980392156862,104.53,175.88,201.23
613.3,11.0,188.50980392156862,261.4901960784314,122.31,174.23,183.21
613.35,-84.0,-56.490196078431374,138.49019607843138,125.18,167.76,144.71
613.4,-84.0,-154.49019607843138,200.49019607843138,119.79,180.43,154.33
613.45,-227.0,9.509803921568627,230.49019607843138,190.0,167.06,123.22
613.5,256.5098039215686,123.50980392156863,-289.01960784313724,122.84,159.15,66.41
613.55,-45.490196078431374,319.5098039215686,-273.01960784313724,126.69,103.88,65.29
613.6,2.5098039215686274,-258.0,-42.01960784313726,114.54,48.44,47.86
613.65,-93.49019607843137,-225.0,-119.01960784313725,59.98,-40.52,20.74
613.7,-172.49019607843138,-176.0,280.98039215686276,41.39,-48.92,-20.48
613.75,-54.98039215686274,52.0,-146.52941176470588,-64.93,-103.48,-101.44
613.8,-6.980392156862745,-160.0,-235.0392156862745,-216.55,-187.17,-155.27
613.85,142.52941176470588,-62.0,30.45098039215686,321.81,-295.95,-233.88
613.9,260.03921568627453,281.0,-228.05882352941177,-280.84,255.99,-297.82
613.95,-120.96078431372548,-171.01960784313727,115.47058823529412,-218.79,237.3,-208.92
614.0,206.52941176470588,-73.01960784313725,320.0,16.02,280.73,-87.37
614.05,-283.4901960784314,-220.01960784313727,236.01960784313727,-54.15,-218.91,-53.8
614.1,272.5098039215686,150.0,82.01960784313725,-177.63,-134.91,-42.39
614.15,-186.50980392156862,-209.0,113.01960784313725,-122.22,-103.41,-45.51
614.2,-139.50980392156862,-143.0,298.01960784313724,-47.78,-89.41,-46.77
614.25,-11.509803921568627,-45.0,282.01960784313724,-32.76,-83.81,-51.0
614.3,-154.50980392156862,-192.0,-221.49019607843138,-17.85,-73.7,-62.76
614.35,281.0,-62.0,-267.4901960784314,-13.55,-70.37,-89.26
614.4,11.0,-29.0,267.01960784313724,-41.9,-32.15,-90.66
614.45,193.50980392156862,166.0,67.01960784313725,136.91,-124.41,-57.51
614.5,42.0,-155.01960784313727,321.03921568627453,-47.32,65.52,-0.78
614.55,186.0,3.0,232.52941176470588,87.03,68.39,7.4
614.6,-91.50980392156863,297.0,309.52941176470586,37.47,114.24,12.34
614.65,-139.50980392156862,133.0,-132.98039215686273,83.78,158.03,23.71
614.7,-139.50980392156862,133.0,113.01960784313725,69.39,192.64,32.74
614.75,-298.5098039215686,117.0,-190.49019607843138,37.68,221.31,51.15
614.8,170.0,52.0,132.50980392156862,-27.06,234.57,99.0
614.85,313.0,-78.0,-33.0,29.42,213.61,144.04
614.9,-186.50980392156862,-62.0,73.0,48.18,202.3,157.48
614.95,217.0,-290.0,-169.50980392156862,66.77,187.57,171.59
615.0,58.0,303.5098039215686,123.49019607843137,106.14,166.71,141.8
615.05,-84.0,107.50980392156863,246.49019607843138,93.51,168.6,108.2
615.1,240.50980392156862,156.50980392156862,277.4901960784314,100.93,144.73,111.56
615.15,-84.0,107.50980392156863,-289.01960784313724,194.83,120.23,148.7
615.2,-147.0,139.50980392156862,-273.01960784313724,137.12,128.59,75.2
615.25,-306.0,90.50980392156863,-181.01960784313727,107.19,117.95,44.01
615.3,193.50980392156862,-307.0,-212.01960784313727,77.79,93.94,35.33
615.35,65.50980392156863,-241.0,-181.01960784313727,55.57,64.4,20.6
615.4,-77.49019607843137,-160.0,-73.01960784313725,62.36,20.37,-12.85
615.45,-220.49019607843138,-290.0,187.98039215686273,2.4,-5.34,-40.43
615.5,216.01960784313727,303.5098039215686,295.98039215686276,-38.43,-79.75,-100.07
615.55,41.01960784313726,35.0,253.47058823529412,-122.5,-167.39,-84.32
615.6,-213.98039215686273,-176.0,225.9607843137255,-255.82,-269.77,-148.09
615.65,110.52941176470588,199.0,122.45098039215686,-304.19,321.65,-254.91
615.7,-143.47058823529412,-182.50980392156862,-143.0392156862745,-192.33,272.3,-249.66
615.75,126.52941176470588,275.4901960784314,107.49019607843137,-99.51,315.1,-209.2
615.8,136.01960784313727,-198.50980392156862,-110.0,-1.58,-314.78,-165.35
615.85,193.50980392156862,-165.50980392156862,-313.4901960784314,-108.22,-207.08,-115.72
615.9,-195.0,-13.0,67.01960784313725,-90.72,-150.17,-74.8
615.95,-139.50980392156862,117.0,144.01960784313727,22.25,-128.47,-30.67
616.0,-170.50980392156862,215.0,190.01960784313727,7.09,-98.9,-22.62
616.05,-123.50980392156863,3.0,-313.4901960784314,-15.09,-70.44,-28.57
616.1,-250.50980392156862,-13.0,-267.4901960784314,-23.24,-45.84,-33.89
616.15,233.0,68.0,-236.49019607843138,25.36,-41.25,-33.47
616.2,-147.0,248.0,-175.49019607843138,19.8,8.19,38.13
616.25,-188.49019607843138,-182.50980392156862,-185.9607843137255,-153.48,44.1,10.24
616.3,-116.0,-274.0,252.01960784313727,128.16,14.21,-33.5
616.35,-107.50980392156863,-280.5098039215686,-240.98039215686273,30.37,62.23,-20.62
616.4,-218.50980392156862,35.0,-70.98039215686275,83.78,92.58,-9.74
616.45,4.490196078431373,52.0,-70.98039215686275,66.66,130.06,3.55
616.5,-91.50980392156863,35.0,313.01960784313724,51.79,168.67,21.68
616.55,-186.50980392156862,68.0,-36.490196078431374,25.15,171.54,40.97
616.6,-154.50980392156862,-13.0,316.5098039215686,2.33,164.54,61.09
616.65,-154.50980392156862,-62.0,-64.0,48.01,144.87,73.38
616.7,-43.509803921568626,-29.0,-110.0,40.97,145.04,80.55
616.75,-202.50980392156862,-241.0,12.0,59.24,147.25,81.15
616.8,-75.50980392156863,319.5098039215686,58.0,91.9,156.03,92.52
616.85,-75.50980392156863,-307.0,58.0,61.34,184.7,87.59
616.9,-266.5098039215686,139.50980392156862,243.0,92.21,195.2,86.33
616.95,138.0,-225.0,-169.50980392156862,88.61,207.17,91.54
617.0,-131.0,-225.0,-61.509803921568626,71.49,223.65,125.74
617.05,-52.0,319.5098039215686,246.49019607843138,151.61,215.08,144.71
617.1,240.50980392156862,-127.0,-212.01960784313727,38.91,216.3,68.62
617.15,-220.49019607843138,286.5098039215686,141.98039215686273,36.42,128.98,56.26
617.2,-252.49019607843138,303.5098039215686,-207.52941176470588,73.66,-28.23,-4.7
617.25,-188.49019607843138,74.50980392156863,68.47058823529412,48.11,-75.9,-49.25
617.3,184.01960784313727,25.50980392156863,22.470588235294116,-96.15,-115.28,-84.95
617.35,-260.98039215686276,303.5098039215686,-292.54901960784315,-253.93,-182.16,-138.68
617.4,-16.470588235294116,-290.0,140.94117647058823,-312.24,-301.51,-250.96
617.45,-286.47058823529414,297.0,-185.54901960784315,-180.64,246.26,-264.71
617.5,-286.47058823529414,-236.01960784313727,-273.01960784313724,-37.0,250.49,-191.0
617.55,-292.98039215686276,111.49019607843137,132.50980392156862,20.11,293.33,-147.92
617.6,81.50980392156863,199.0,-24.980392156862745,-168.14,-191.68,-108.93
617.65,-179.0,-94.0,-40.98039215686274,-93.98,-153.01,-74.42
617.7,-43.509803921568626,117.0,52.01960784313726,-3.43,-127.39,-48.38
617.75,-91.50980392156863,150.0,159.01960784313727,-76.76,-74.78,-14.53
617.8,-186.50980392156862,-29.0,313.01960784313724,1.95,-70.83,-2.18
617.85,-313.5098039215686,183.0,236.01960784313727,14.2,-42.3,-12.05
617.9,297.0,133.0,175.01960784313727,6.85,-34.53,-31.86
617.95,-163.0,19.0,113.01960784313725,30.3,54.11,-4.03
618.0,97.50980392156863,133.0,121.03921568627452,-100.31,47.39,-4.84
618.05,-306.0,19.0,21.019607843137255,108.73,68.18,-2.11
618.1,249.0,150.0,-255.98039215686273,47.73,124.53,15.21
618.15,-202.50980392156862,101.0,-86.98039215686275,64.67,174.65,35.75
618.2,-139.50980392156862,52.0,21.019607843137255,33.69,208.57,44.92
618.25,249.0,52.0,-6.490196078431373,15.77,220.22,72.61
618.3,-266.5098039215686,3.0,-295.0,30.89,215.67,110.65
618.35,-298.5098039215686,-29.0,43.0,84.34,204.37,139.46
618.4,-313.5098039215686,-78.0,212.0,91.13,200.03,144.81
618.45,-52.0,-176.0,-230.50980392156862,224.93,164.61,166.69
618.5,-195.0,52.0,277.4901960784314,181.08,188.41,117.3
618.55,256.5098039215686,319.5098039215686,64.98039215686275,148.95,183.3,86.89
618.6,-275.0,-241.0,-42.01960784313726,50.07,234.61,41.56
618.65,81.50980392156863,172.50980392156862,218.98039215686273,91.86,204.16,18.46
618.7,145.50980392156862,303.5098039215686,110.98039215686275,26.9,170.07,6.63
618.75,145.50980392156862,172.50980392156862,64.98039215686275,69.18,114.28,10.34
618.8,97.50980392156863,-176.0,64.98039215686275,74.71,51.0,5.86
618.85,129.50980392156862,-143.0,49.98039215686274,42.41,-22.42,12.48
618.9,-45.490196078431374,-94.0,-177.52941176470588,50.7,-37.4,13.91
618.95,-108.49019607843137,19.0,-58.01960784313726,-40.43,-29.56,-20.41
619.0,-77.49019607843137,-62.0,-135.01960784313727,-53.27,-57.35,-44.39
619.05,-156.49019607843138,-62.0,280.98039215686276,-120.75,-144.99,-73.65
619.1,120.01960784313725,-192.0,41.96078431372549,-254.98,-313.94,-206.09
619.15,190.52941176470588,221.50980392156862,-228.05882352941177,-266.49,225.43,300.84
619.2,22.03921568627451,-274.0,-216.54901960784315,-117.18,234.01,-284.24
619.25,-72.96078431372548,62.490196078431374,230.49019607843138,18.4,297.11,-204.06
619.3,-292.98039215686276,193.49019607843138,-221.49019607843138,-22.19,-281.18,-161.85
619.35,193.50980392156862,-296.5098039215686,236.01960784313727,-194.88,-171.1,-148.97
619.4,-84.0,-116.50980392156863,221.01960784313727,-44.24,-164.17,-72.28
619.45,-123.50980392156863,144.49019607843138,236.01960784313727,10.84,-133.09,-8.62
619.5,4.490196078431373,46.490196078431374,221.01960784313727,18.68,-105.72,28.4
619.55,-107.50980392156863,-214.50980392156862,221.01960784313727,-2.73,-74.85,39.29
619.6,-186.50980392156862,297.0,267.01960784313724,-24.57,-45.98,29.94
619.65,-282.5098039215686,199.0,-283.4901960784314,25.99,-38.49,5.97
619.7,154.0,183.0,313.01960784313724,164.52,-13.08,0.23
619.75,320.5098039215686,133.0,-9.980392156862745,-18.73,10.26,8.17
619.8,27.0,303.5098039215686,1.5294117647058822,-38.36,65.24,-7.43
619.85,-20.0,166.0,278.52941176470586,97.5,82.5,3.06
619.9,-266.5098039215686,52.0,-178.98039215686273,22.32,133.88,2.71
619.95,-202.50980392156862,19.0,-86.98039215686275,59.52,175.28,8.94
620.0,-234.50980392156862,232.0,21.019607843137255,-41.09,223.69,20.74
620.05,281.0,52.0,-36.490196078431374,-37.7,240.94,76.91
620.1,-298.5098039215686,150.0,-310.0,-61.78,232.68,127.03
620.15,-234.50980392156862,-45.0,227.0,57.7,187.22,179.6
620.2,-250.50980392156862,3.0,-292.5098039215686,139.64,158.48,179.67
620.25,-282.5098039215686,-209.0,92.49019607843137,109.99,173.01,139.25
620.3,-68.0,-290.0,200.49019607843138,25.47,181.55,120.59
620.35,-131.0,107.50980392156863,277.4901960784314,39.99,185.12,138.76
620.4,-116.0,-258.0,77.49019607843137,171.35,121.66,178.52
620.45,281.0,221.50980392156862,-319.01960784313724,104.57,163.73,74.95
620.5,145.50980392156862,107.50980392156863,200.49019607843138,-39.17,195.16,135.71
620.55,-13.490196078431373,90.50980392156863,49.98039215686274,153.92,75.53,86.15
620.6,161.50980392156862,-258.0,-242.01960784313727,76.5,64.4,67.46
620.65,-188.49019607843138,123.50980392156863,-58.01960784313726,33.66,43.05,7.47
620.7,295.01960784313724,-258.0,-119.01960784313725,1.7,40.53,-5.89
620.75,-38.98039215686274,237.50980392156862,110.98039215686275,23.65,-30.16,-32.1
620.8,-61.490196078431374,286.5098039215686,233.98039215686273,-69.48,-41.99,-72.14
620.85,-236.49019607843138,107.50980392156863,34.98039215686274,-89.57,-127.11,-127.76
620.9,120.01960784313725,237.50980392156862,-189.0392156862745,-185.61,-233.26,-163.28
620.95,-292.98039215686276,286.5098039215686,133.9607843137255,-251.69,-287.34,-186.91
621.0,269.52941176470586,-78.0,-220.0392156862745,-206.29,-306.59,-216.34
621.05,-133.98039215686273,-182.50980392156862,-12.019607843137255,-125.2,321.96,-186.98
621.1,-236.49019607843138,215.0,-199.50980392156862,-103.22,-255.84,-149.7
621.15,-124.49019607843137,166.0,-187.0,6.43,-254.19,-132.45
621.2,74.0,101.0,-129.49019607843138,-24.61,-189.69,-89.82
621.25,90.0,-94.0,236.01960784313727,-87.4,-134.46,-80.33
621.3,-170.50980392156862,-111.0,175.01960784313727,-52.4,-100.3,-58.95
621.35,-59.509803921568626,133.0,236.01960784313727,-75.81,-75.2,-33.78
621.4,-154.50980392156862,35.0,-236.49019607843138,-26.78,-68.03,-21.22
621.45,-202.50980392156862,183.0,-237.49019607843138,-7.98,-52.87,-21.85
621.5,201.0,166.0,-313.4901960784314,-5.36,-49.76,-41.06
621.55,-227.0,264.0,113.01960784313725,-22.37,-11.47,-33.12
621.6,256.5098039215686,101.0,-86.98039215686275,-58.87,55.06,-7.64
621.65,154.0,-296.5098039215686,155.52941176470588,70.93,82.08,36.52
621.7,-298.5098039215686,-149.50980392156862,109.52941176470588,64.56,113.12,45.55
621.75,-234.50980392156862,215.0,-163.98039215686273,89.34,157.68,40.79
621.8,-170.50980392156862,232.0,-70.98039215686275,41.32,210.91,47.44
621.85,281.0,199.0,-206.49019607843138,-6.06,235.1,110.65
621.9,-313.5098039215686,166.0,255.50980392156862,33.55,234.33,181.88
621.95,154.0,117.0,-18.0,81.54,208.67,211.24
622.0,74.0,-78.0,-30.50980392156863,135.26,167.27,179.74
622.05,74.0,237.50980392156862,261.4901960784314,159.94,163.52,142.12
622.1,-147.0,172.50980392156862,-73.01960784313725,116.5,173.29,119.26
622.15,-211.0,107.50980392156863,-119.01960784313725,80.98,178.01,98.44
622.2,-227.0,-89.49019607843137,-73.01960784313725,52.84,165.27,73.52
622.25,-179.0,-40.490196078431374,-119.01960784313725,40.76,122.57,57.7
622.3,-147.0,41.509803921568626,-119.01960784313725,71.84,89.67,45.9
622.35,272.5098039215686,172.50980392156862,-181.01960784313727,63.34,59.89,44.92
622.4,288.5098039215686,156.50980392156862,-227.01960784313727,47.69,53.2,36.38
622.45,129.50980392156862,221.50980392156862,-273.01960784313724,55.99,50.12,28.09
622.5,65.50980392156863,270.5098039215686,-304.01960784313724,36.63,50.96,13.35
622.55,-45.490196078431374,237.50980392156862,-258.01960784313724,24.38,39.69,-0.85
622.6,-61.490196078431374,237.50980392156862,-242.01960784313727,25.47,11.06,-10.96
622.65,-61.490196078431374,-274.0,-227.01960784313727,13.64,1.58,-15.44
622.7,2.5098039215686274,-160.0,-27.019607843137255,2.51,-0.72,-18.8
622.75,113.50980392156863,-225.0,-227.01960784313727,-11.17,-8.98,-21.25
622.8,288.5098039215686,-274.0,307.4901960784314,14.9,-30.79,-20.62
622.85,-306.0,-209.0,261.4901960784314,23.3,-31.91,-14.67
622.9,272.5098039215686,-209.0,200.49019607843138,8.81,-18.05,-11.56
622.95,240.50980392156862,-225.0,138.49019607843138,-15.89,-1.35,-6.55
623.0,240.50980392156862,-209.0,215.49019607843138,-24.57,-19.13,-24.61
623.05,177.50980392156862,303.5098039215686,-181.01960784313727,-48.48,-96.48,-50.79
623.1,-188.49019607843138,156.50980392156862,-23.529411764705884,-115.82,-224.55,-92.58
623.15,-54.98039215686274,-40.490196078431374,-200.54901960784315,-229.53,-304.91,-152.82
623.2,253.52941176470588,188.50980392156862,-16.54901960784314,-214.94,312.55,-234.86
623.25,-95.47058823529412,248.0,161.47058823529412,-145.64,280.98,-214.17
623.3,-292.98039215686276,-182.50980392156862,138.49019607843138,-2.84,306.21,-129.86
623.35,247.01960784313727,-51.509803921568626,86.50980392156863,-12.08,-274.14,-91.04
623.4,-179.0,68.0,-267.4901960784314,-122.68,-170.19,-79.84
623.45,-36.0,52.0,282.01960784313724,-191.45,-128.72,-55.27
623.5,-139.50980392156862,-13.0,-283.4901960784314,-23.7,-132.22,-29.55
623.55,35.490196078431374,297.0,221.01960784313727,-14.35,-106.07,-6.17
623.6,-139.50980392156862,3.0,-313.4901960784314,-15.12,-70.76,-17.37
623.65,-266.5098039215686,3.0,267.01960784313724,-21.53,-51.51,-47.19
623.7,-298.5098039215686,-45.0,175.01960784313727,-7.46,-37.37,-80.51
623.75,27.0,133.0,221.01960784313727,-77.49,-34.43,-80.12
623.8,256.5098039215686,133.0,159.01960784313727,-19.18,21.88,-38.05
623.85,208.50980392156862,-149.50980392156862,-178.98039215686273,13.43,65.84,12.41
623.9,249.0,-280.5098039215686,124.52941176470588,39.89,102.62,27.11
623.95,-266.5098039215686,-214.50980392156862,-270.98039215686276,45.63,134.19,14.05
624.0,-91.50980392156863,248.0,-101.98039215686275,1.28,190.05,24.66
624.05,-170.50980392156862,-296.5098039215686,236.01960784313727,5.1,201.25,78.14
624.1,-154.50980392156862,-280.5098039215686,70.50980392156863,21.62,198.91,130.99
624.15,-107.50980392156863,297.0,-172.0,50.18,188.76,164.38
624.2,-154.50980392156862,35.0,27.0,33.45,173.01,152.37
624.25,-313.5098039215686,-307.0,-107.50980392156863,102.22,165.1,120.07
624.3,217.0,-258.0,169.49019607843138,13.08,161.32,98.44
624.35,201.0,-40.490196078431374,-212.01960784313727,51.37,129.96,124.06
624.4,217.0,270.5098039215686,-258.01960784313724,40.1,107.87,121.12
624.45,217.0,-105.49019607843137,-319.01960784313724,69.11,93.87,100.92
624.5,249.0,-23.49019607843137,184.49019607843138,55.08,75.88,94.24
624.55,-298.5098039215686,-40.490196078431374,169.49019607843138,39.64,77.11,58.4
624.6,186.0,-203.49019607843138,261.4901960784314,32.68,77.6,39.57
624.65,74.0,41.509803921568626,169.49019607843138,66.21,62.27,44.5
624.7,58.0,107.50980392156863,138.49019607843138,66.59,65.03,41.91
624.75,-100.0,237.50980392156862,107.49019607843137,59.7,73.5,56.93
624.8,-163.0,270.5098039215686,77.49019607843137,89.83,70.95,56.02
624.85,-290.0,-290.0,123.49019607843137,68.9,82.67,42.37
624.9,288.5098039215686,-225.0,307.4901960784314,38.14,86.35,32.36
624.95,97.50980392156863,-225.0,-135.01960784313727,1.98,73.12,24.59
625.0,-29.49019607843137,303.5098039215686,34.98039215686274,22.53,12.57,-19.64
625.05,34.509803921568626,41.509803921568626,234.98039215686273,-42.84,-51.79,-82.85
625.1,-172.49019607843138,-89.49019607843137,-131.52941176470588,-99.4,-113.77,-126.64
625.15,168.01960784313727,58.509803921568626,-281.03921568627453,-96.29,-187.52,-144.0
625.2,-133.98039215686273,286.5098039215686,241.9607843137255,-293.93,-229.83,-178.19
625.25,317.52941176470586,41.509803921568626,-246.54901960784315,-264.64,-308.72,-270.42
625.3,126.52941176470588,52.0,-23.529411764705884,-70.18,301.38,-272.13
625.35,-245.98039215686273,-116.50980392156863,-76.50980392156863,101.91,-317.02,-157.65
625.4,263.01960784313724,46.490196078431374,147.50980392156862,57.6,-272.78,-64.48
625.45,-116.0,101.0,24.50980392156863,-124.18,-177.16,-48.97
625.5,122.0,-94.0,-175.49019607843138,-75.71,-151.78,-55.2
625.55,-202.50980392156862,52.0,267.01960784313724,-63.18,-128.58,-45.86
625.6,-154.50980392156862,3.0,221.01960784313727,-20.37,-115.14,-35.78
625.65,-59.509803921568626,35.0,5.019607843137255,-3.96,-85.46,-32.84
625.7,-154.50980392156862,-62.0,36.01960784313726,-17.68,-55.74,-50.41
625.75,154.0,-78.0,206.01960784313727,-31.15,-36.98,-78.55
625.8,-163.0,-13.0,144.01960784313727,25.64,15.93,-37.91
625.85,-188.49019607843138,215.0,-86.98039215686275,-39.66,19.32,-20.8
625.9,-147.0,232.0,140.52941176470588,59.28,85.96,14.09
625.95,186.0,-116.50980392156863,201.52941176470588,40.69,122.47,17.1
626.0,281.0,-45.0,21.019607843137255,75.87,158.38,11.85
626.05,99.49019607843137,232.0,-24.980392156862745,33.1,198.52,20.28
626.1,-202.50980392156862,133.0,-36.490196078431374,5.45,209.58,57.98
626.15,-75.50980392156863,101.0,270.5098039215686,29.77,202.34,95.85
626.2,-43.509803921568626,52.0,-33.0,30.02,191.1,145.06
626.25,-202.50980392156862,-45.0,-230.50980392156862,103.1,169.72,164.45
626.3,281.0,-62.0,123.49019607843137,61.48,181.13,119.58
626.35,27.0,156.50980392156862,-242.01960784313727,8.98,177.14,115.2
626.4,313.0,-72.49019607843137,-150.01960784313727,15.7,164.5,107.85
626.45,233.0,-170.49019607843138,-242.01960784313727,30.72,141.51,93.36
626.5,154.0,-105.49019607843137,261.4901960784314,53.75,97.55,67.67
626.55,-266.5098039215686,-121.49019607843137,169.49019607843138,46.75,72.84,52.55
626.6,-298.5098039215686,-187.49019607843138,261.4901960784314,59.66,53.24,35.16
626.65,154.0,-7.490196078431373,169.49019607843138,74.54,58.24,31.94
626.7,42.0,123.50980392156863,46.490196078431374,59.45,62.69,29.77
626.75,-4.0,205.50980392156862,107.49019607843137,55.67,55.23,24.97
626.8,-68.0,254.50980392156862,200.49019607843138,65.93,56.63,32.99
626.85,288.5098039215686,-209.0,230.49019607843138,74.26,44.84,43.17
626.9,304.5098039215686,-225.0,215.49019607843138,76.11,58.66,43.73
626.95,97.50980392156863,-209.0,184.49019607843138,30.26,76.62,35.33
627.0,18.50980392156863,319.5098039215686,-227.01960784313727,16.02,69.06,18.67
627.05,-93.49019607843137,319.5098039215686,-119.01960784313725,3.7,10.43,7.05
627.1,-61.490196078431374,-290.0,141.98039215686273,23.4,-40.06,-14.99
627.15,18.50980392156863,319.5098039215686,295.98039215686276,-42.21,-77.06,-51.35
627.2,-77.49019607843137,156.50980392156862,-284.52941176470586,-22.86,-130.68,-88.17
627.25,-93.49019607843137,-307.0,-161.52941176470588,-101.33,-241.31,-108.44
627.3,152.01960784313727,-176.0,-4.03921568627451,-223.79,324.52,-120.93
627.35,174.52941176470588,133.0,91.45098039215686,-260.65,250.39,-183.3
627.4,94.52941176470588,-182.50980392156862,-4.03921568627451,-95.97,263.37,-179.24
627.45,-48.470588235294116,-318.01960784313724,-107.50980392156863,-73.47,-317.72,-78.9
627.5,129.50980392156862,-296.5098039215686,82.01960784313725,-189.46,-151.36,-54.92
627.55,-36.0,-13.0,-24.980392156862745,-170.14,-123.15,-67.17
627.6,-75.50980392156863,3.0,-298.4901960784314,-59.54,-138.76,-46.49
627.65,19.49019607843137,3.0,-160.49019607843138,18.43,-135.02,-43.06
627.7,-27.50980392156863,52.0,-252.49019607843138,-29.16,-103.9,-24.75
627.75,-75.50980392156863,-94.0,-144.49019607843138,-20.48,-77.16,-27.27
627.8,-202.50980392156862,-45.0,-252.49019607843138,-3.08,-56.34,-39.59
627.85,265.0,3.0,298.01960784313724,4.22,-49.86,-74.35
627.9,-52.0,117.0,206.01960784313727,-87.08,-22.74,-69.9
627.95,208.50980392156862,52.0,159.01960784313727,-41.06,-2.47,-44.11
628.0,-243.0,-231.50980392156862,247.52941176470588,42.2,21.81,-1.09
628.05,74.0,-214.50980392156862,-86.98039215686275,67.82,49.0,19.37
628.1,-234.50980392156862,-198.50980392156862,-117.98039215686275,53.36,88.52,24.59
628.15,-139.50980392156862,215.0,-55.98039215686274,3.84,138.08,17.69
628.2,-202.50980392156862,84.0,98.01960784313725,-3.89,164.82,40.06
628.25,-107.50980392156863,215.0,-313.4901960784314,10.52,169.16,67.32
628.3,-250.50980392156862,166.0,147.50980392156862,36.98,154.07,92.1
628.35,-27.50980392156863,52.0,-279.0,66.77,147.88,116.53
628.4,-11.509803921568627,3.0,-218.0,83.53,161.74,144.08
628.45,-91.50980392156863,-160.0,-49.0,94.14,168.63,141.59
628.5,-107.50980392156863,303.5098039215686,-276.5098039215686,54.62,180.46,109.36
628.55,217.0,139.50980392156862,-46.509803921568626,32.12,164.15,82.58
628.6,265.0,58.509803921568626,138.49019607843138,38.21,157.15,74.67
628.65,138.0,90.50980392156863,77.49019607843137,19.06,158.1,96.23
628.7,281.0,-72.49019607843137,246.49019607843138,31.14,125.72,120.14
628.75,313.0,-72.49019607843137,277.4901960784314,40.24,121.87,87.8
628.8,-68.0,-252.49019607843138,292.4901960784314,17.87,101.22,62.95
628.85,-100.0,-23.49019607843137,169.49019607843138,60.4,73.54,75.23
628.9,-100.0,-89.49019607843137,246.49019607843138,41.32,39.73,60.64
628.95,-147.0,107.50980392156863,215.49019607843138,88.64,-4.29,61.02
629.0,-211.0,139.50980392156862,-165.01960784313727,64.56,21.0,53.29
629.05,288.5098039215686,41.509803921568626,261.4901960784314,70.79,36.47,46.81
629.1,-275.0,156.50980392156862,153.49019607843138,54.48,48.23,26.93
629.15,-290.0,172.50980392156862,230.49019607843138,59.28,53.06,22.7
629.2,-290.0,286.5098039215686,230.49019607843138,62.74,54.22,4.39
629.25,256.5098039215686,-290.0,277.4901960784314,39.08,57.37,3.9
629.3,129.50980392156862,-274.0,277.4901960784314,24.77,52.12,3.87
629.35,2.5098039215686274,-225.0,-258.01960784313724,8.63,10.33,5.41
629.4,-13.490196078431373,-290.0,-181.01960784313727,34.95,-21.65,-3.54
629.45,81.50980392156863,-274.0,33.98039215686274,7.69,-13.04,-18.98
629.5,18.50980392156863,-290.0,-273.01960784313724,-28.49,-25.22,-42.11
629.55,193.50980392156862,254.50980392156862,-212.01960784313727,-14.74,-65.3,-60.28
629.6,97.50980392156863,303.5098039215686,49.98039215686274,-34.3,-139.71,-93.04
629.65,-267.4901960784314,237.50980392156862,38.470588235294116,-110.08,-216.88,-112.99
629.7,-70.98039215686275,-258.0,179.9607843137255,-259.84,-269.91,-177.91
629.75,174.52941176470588,3.0,-231.54901960784315,-255.26,-325.42,-250.12
629.8,-0.47058823529411764,-116.50980392156863,145.47058823529412,-155.26,273.63,-230.73
629.85,-245.98039215686273,160.49019607843138,30.49019607843137,-43.54,296.69,-166.61
629.9,-124.49019607843137,-231.50980392156862,-37.490196078431374,-86.94,-274.07,-155.13
629.95,161.50980392156862,52.0,98.01960784313725,-153.37,-183.91,-118.69
630.0,27.0,297.0,5.019607843137255,0.13,-161.86,-56.78
630.05,-91.50980392156863,-247.50980392156862,-147.98039215686273,3.31,-121.47,-20.76
630.1,-91.50980392156863,117.0,52.01960784313726,-6.02,-84.86,-12.78
630.15,-75.50980392156863,101.0,159.01960784313727,0.51,-60.26,-22.02
630.2,-154.50980392156862,101.0,236.01960784313727,-22.16,-22.88,-32.98
630.25,281.0,133.0,-283.4901960784314,15.95,-26.38,-26.5
630.3,-116.0,313.0,282.01960784313724,13.81,12.46,-5.22
630.35,-156.49019607843138,-312.5098039215686,-178.98039215686273,-24.29,6.62,-11.66
630.4,-52.0,199.0,98.01960784313725,23.75,39.59,-3.09
630.45,201.0,166.0,-178.98039215686273,11.96,70.81,11.43
630.5,-186.50980392156862,199.0,-132.98039215686273,70.37,84.18,14.19
630.55,-91.50980392156863,281.0,21.019607843137255,39.08,123.76,17.66
630.6,-91.50980392156863,117.0,206.01960784313727,-8.33,165.66,41.42
630.65,-91.50980392156863,68.0,-67.49019607843137,67.5,162.79,63.75
630.7,-123.50980392156863,183.0,209.50980392156862,29.0,157.61,78.0
630.75,4.490196078431373,-94.0,-126.0,45.1,142.63,88.71
630.8,67.49019607843137,-143.0,-64.0,71.46,136.05,91.47
630.85,35.490196078431374,-241.0,-3.0,82.38,138.57,88.78
630.9,4.490196078431373,270.5098039215686,89.0,75.97,148.02,68.37
630.95,-91.50980392156863,188.50980392156862,258.0,54.73,167.69,53.22
631.0,-313.5098039215686,188.50980392156862,-246.50980392156862,11.43,176.82,51.75
631.05,-298.5098039215686,172.50980392156862,-30.50980392156863,32.4,170.66,79.47
631.1,186.0,303.5098039215686,77.49019607843137,45.52,147.04,93.82
631.15,297.0,90.50980392156863,-304.01960784313724,55.85,139.06,96.41
631.2,42.0,286.5098039215686,-304.01960784313724,-20.27,128.31,105.86
631.25,74.0,41.509803921568626,-242.01960784313727,88.12,104.69,108.48
631.3,-52.0,-290.0,153.49019607843138,59.17,104.44,73.27
631.35,-163.0,172.50980392156862,277.4901960784314,47.59,104.16,47.83
631.4,-306.0,9.509803921568627,200.49019607843138,97.11,78.86,47.23
631.45,208.50980392156862,303.5098039215686,184.49019607843138,78.28,60.31,43.21
631.5,-13.490196078431373,319.5098039215686,-289.01960784313724,94.84,37.98,50.14
631.55,-108.49019607843137,-94.0,-73.01960784313725,16.61,20.79,33.02
631.6,-188.49019607843138,303.5098039215686,141.98039215686273,27.53,-8.53,-8.23
631.65,-236.49019607843138,156.50980392156862,-269.52941176470586,-34.02,-64.32,-73.89
631.7,-140.49019607843138,237.50980392156862,-284.52941176470586,-44.35,-136.28,-96.99
631.75,-315.4901960784314,-307.0,53.470588235294116,-134.86,-232.53,-148.02
631.8,-133.98039215686273,270.5098039215686,302.96078431372547,-300.09,-283.31,-206.33
631.85,-270.47058823529414,-192.0,137.45098039215685,-212.87,291.76,-274.34
631.9,213.0392156862745,144.49019607843138,99.47058823529412,-110.39,315.8,-186.38
631.95,126.52941176470588,226.49019607843138,-230.50980392156862,-26.78,313.95,-149.32
632.0,240.50980392156862,-67.50980392156863,-267.4901960784314,-54.18,-278.06,-128.14
632.05,-36.0,248.0,221.01960784313727,-112.53,-186.15,-90.69
632.1,170.0,68.0,113.01960784313725,-87.19,-142.96,-57.44
632.15,-75.50980392156863,19.0,190.01960784313727,12.38,-134.18,-27.66
632.2,-27.50980392156863,117.0,236.01960784313727,37.93,-119.97,-16.67
632.25,-250.50980392156862,101.0,-283.4901960784314,66.24,-91.97,-35.85
632.3,154.0,68.0,252.01960784313727,11.99,-54.17,-76.06
632.35,193.50980392156862,84.0,-24.980392156862745,-106.65,2.07,-70.71
632.4,168.01960784313727,133.0,-9.980392156862745,-152.99,54.29,-3.16
632.45,240.50980392156862,232.0,-132.98039215686273,160.57,26.74,7.05
632.5,-250.50980392156862,-51.509803921568626,171.52941176470588,69.32,71.09,0.65
632.55,-298.5098039215686,84.0,-132.98039215686273,12.8,113.54,-13.34
632.6,-154.50980392156862,150.0,-9.980392156862745,-3.36,162.89,-13.76
632.65,-27.50980392156863,150.0,221.01960784313727,-86.42,193.97,32.67
632.7,-218.50980392156862,248.0,193.50980392156862,-74.73,189.6,93.05
632.75,-202.50980392156862,215.0,-203.0,-52.85,167.97,137.81
632.8,83.49019607843137,52.0,89.0,95.92,130.34,160.25
632.85,115.49019607843137,52.0,73.0,81.78,135.21,146.77
632.9,35.490196078431374,303.5098039215686,196.0,28.44,165.13,132.63
632.95,-298.5098039215686,286.5098039215686,-292.5098039215686,47.97,152.95,125.81
633.0,-282.5098039215686,156.50980392156862,-261.5098039215686,91.09,149.14,116.6
633.05,201.0,41.509803921568626,-107.50980392156863,91.09,132.69,157.9
633.1,-59.509803921568626,9.509803921568627,-184.50980392156862,169.42,137.83,121.75
633.15,-36.0,90.50980392156863,184.49019607843138,66.35,155.51,79.61
633.2,-131.0,270.5098039215686,261.4901960784314,40.03,137.69,55.7
633.25,-100.0,-7.490196078431373,-12.019607843137255,100.72,76.9,33.37
633.3,-36.0,156.50980392156862,-181.01960784313727,30.3,86.7,-12.89
633.35,320.5098039215686,-7.490196078431373,-258.01960784313724,48.43,81.8,5.69
633.4,256.5098039215686,319.5098039215686,261.4901960784314,32.64,81.73,13.42
633.45,161.50980392156862,286.5098039215686,-289.01960784313724,23.82,71.96,21.96
633.5,113.50980392156863,-290.0,-196.01960784313727,20.15,60.06,29.94
633.55,81.50980392156863,303.5098039215686,-135.01960784313727,17.24,38.57,30.01
633.6,129.50980392156862,286.5098039215686,-119.01960784313725,2.4,1.96,8.94
633.65,224.50980392156862,188.50980392156862,-73.01960784313725,18.26,-26.52,-13.34
633.7,129.50980392156862,221.50980392156862,-73.01960784313725,-12.32,-57.98,-34.76
633.75,113.50980392156863,172.50980392156862,-12.019607843137255,-54.6,-76.95,-44.67
633.8,177.50980392156862,90.50980392156863,-42.01960784313726,-5.29,-79.82,-81.1
633.85,240.50980392156862,237.50980392156862,-212.01960784313727,-67.34,-109.22,-95.03
633.9,34.509803921568626,-23.49019607843137,-177.52941176470588,-98.32,-223.15,-110.29
633.95,168.01960784313727,25.50980392156863,-200.54901960784315,-153.41,276.36,-133.64
634.0,-245.98039215686273,286.5098039215686,-62.549019607843135,-152.99,272.96,-145.82
634.05,-175.47058823529412,-67.50980392156863,310.98039215686276,-111.55,302.99,-83.13
634.1,-6.980392156862745,79.49019607843137,89.0,-89.32,-284.85,-60.35
634.15,-20.0,297.0,-283.4901960784314,-123.45,-207.47,-89.61
634.2,-4.0,-160.0,282.01960784313724,-135.63,-162.25,-115.02
634.25,170.0,-62.0,282.01960784313724,-29.58,-171.24,-84.22
634.3,-218.50980392156862,-78.0,252.01960784313727,-9.31,-137.12,-53.52
634.35,281.0,101.0,252.01960784313727,-50.05,-80.52,-35.01
634.4,313.0,3.0,113.01960784313725,-55.06,-49.3,-37.67
634.45,-313.5098039215686,52.0,252.01960784313727,17.52,-41.67,-42.85
634.5,297.0,-312.5098039215686,221.01960784313727,40.69,-37.26,-76.62
634.55,-100.0,-280.5098039215686,-147.98039215686273,-150.15,72.94,-48.31
634.6,-61.490196078431374,-302.01960784313724,36.01960784313726,120.11,32.31,5.16
634.65,177.50980392156862,-62.0,313.01960784313724,-7.35,75.18,24.41
634.7,-313.5098039215686,150.0,5.019607843137255,94.73,83.79,23.08
634.75,281.0,150.0,113.01960784313725,49.27,121.56,7.51
634.8,-154.50980392156862,-13.0,98.01960784313725,51.65,169.16,6.53
634.85,-123.50980392156863,68.0,144.01960784313727,-31.92,210.32,40.51
634.9,-218.50980392156862,-45.0,-21.49019607843137,-4.87,215.88,90.21
634.95,-107.50980392156863,35.0,-279.0,76.08,175.84,114.12
635.0,99.49019607843137,-94.0,-3.0,59.45,182.07,104.67
635.05,-107.50980392156863,303.5098039215686,243.0,85.56,169.3,91.82
635.1,-202.50980392156862,286.5098039215686,-138.50980392156862,57.91,173.88,68.62
635.15,138.0,-225.0,-46.509803921568626,-6.72,169.3,57.84
635.2,106.0,188.50980392156862,277.4901960784314,61.24,136.01,69.6
635.25,217.0,-192.0,215.49019607843138,55.01,112.98,90.28
635.3,-298.5098039215686,-7.490196078431373,-304.01960784313724,62.25,99.33,74.88
635.35,-186.50980392156862,-203.49019607843138,-150.01960784313727,44.3,105.95,35.09
635.4,74.0,74.50980392156863,-304.01960784313724,12.34,105.46,38.48
635.45,-36.0,286.5098039215686,292.4901960784314,2.58,111.2,56.54
635.5,-36.0,254.50980392156862,77.49019607843137,-44.17,118.58,59.62
635.55,-227.0,172.50980392156862,230.49019607843138,68.45,82.99,82.16
635.6,240.50980392156862,319.5098039215686,184.49019607843138,41.5,71.51,61.27
635.65,208.50980392156862,41.509803921568626,-227.01960784313727,60.96,61.01,48.21
635.7,145.50980392156862,172.50980392156862,-242.01960784313727,42.76,51.84,25.78
635.75,145.50980392156862,123.50980392156863,-242.01960784313727,38.35,43.26,13.95
635.8,113.50980392156863,254.50980392156862,-166.01960784313727,12.8,19.53,7.12
635.85,81.50980392156863,221.50980392156862,-135.01960784313727,32.4,-5.94,-2.07
635.9,129.50980392156862,-307.0,-196.01960784313727,23.4,-19.59,-8.97
635.95,161.50980392156862,-290.0,-258.01960784313724,13.85,-13.95,-19.19
636.0,193.50980392156862,-241.0,-289.01960784313724,5.24,-4.22,-9.0
636.05,288.5098039215686,-176.0,153.49019607843138,15.11,11.24,-2.39
636.1,304.5098039215686,-111.0,123.49019607843137,5.52,18.03,3.73
636.15,-290.0,-176.0,138.49019607843138,-18.48,8.19,4.04
636.2,272.5098039215686,-241.0,246.49019607843138,26.83,-15.7,1.73
636.25,224.50980392156862,-192.0,-319.01960784313724,-25.69,-27.43,-13.27
636.3,65.50980392156863,221.50980392156862,-12.019607843137255,-94.36,-117.27,-74.63
636.35,231.01960784313727,237.50980392156862,-266.03921568627453,-168.39,-234.73,-83.41
636.4,174.52941176470588,237.50980392156862,291.45098039215685,-306.92,304.71,-204.79
636.45,-191.47058823529412,3.0,-320.05882352941177,-186.38,207.23,-278.22
636.5,133.0392156862745,-149.50980392156862,-84.52941176470588,-68.01,213.46,-211.13
636.55,-16.470588235294116,-165.50980392156862,258.0,-1.96,283.22,-113.62
636.6,247.01960784313727,-182.50980392156862,-221.49019607843138,-211.16,-217.48,-108.93
636.65,129.50980392156862,-258.0,82.01960784313725,-271.6,-150.1,-86.74
636.7,186.0,-312.5098039215686,52.01960784313726,-39.31,-136.45,-48.62
636.75,-123.50980392156863,-214.50980392156862,-147.98039215686273,7.9,-101.42,-22.9
636.8,-123.50980392156863,68.0,159.01960784313727,-12.74,-63.02,-26.26
636.85,-282.5098039215686,84.0,236.01960784313727,11.89,-50.84,-28.64
636.9,265.0,215.0,205.01960784313727,-0.7,-29.0,-39.21
636.95,-179.0,-312.5098039215686,52.01960784313726,-17.99,-2.61,-44.77
637.0,129.50980392156862,183.0,-24.980392156862745,-67.9,28.81,-26.4
637.05,272.5098039215686,166.0,52.01960784313726,46.43,36.79,-3.96
637.1,281.0,-247.50980392156862,-224.98039215686273,73.94,69.13,0.75
637.15,-250.50980392156862,297.0,-147.98039215686273,28.97,116.38,8.73
637.2,-250.50980392156862,199.0,-55.98039215686274,36.21,165.59,21.26
637.25,-139.50980392156862,166.0,98.01960784313725,23.75,205.28,39.04
637.3,-282.5098039215686,248.0,-129.49019607843138,-2.91,212.28,91.12
637.35,-186.50980392156862,117.0,270.5098039215686,92.81,197.82,118.28
637.4,4.490196078431373,166.0,-249.0,77.06,204.16,130.25
637.45,-313.5098039215686,-62.0,58.0,69.57,207.9,113.07
637.5,249.0,-225.0,-169.50980392156862,71.28,199.5,92.35
637.55,122.0,-258.0,153.49019607843138,35.02,191.14,83.11
637.6,-100.0,-225.0,307.4901960784314,86.4,165.2,97.53
637.65,186.0,286.5098039215686,-165.01960784313727,129.0,131.15,92.35
637.7,138.0,205.50980392156862,-242.01960784313727,-77.32,212.03,76.77
637.75,240.50980392156862,58.509803921568626,-89.01960784313725,-4.17,142.42,109.64
637.8,-131.0,286.5098039215686,307.4901960784314,72.65,112.32,119.09
637.85,177.50980392156862,303.5098039215686,-242.01960784313727,86.09,86.42,107.22
637.9,193.50980392156862,123.50980392156863,-150.01960784313727,66.42,77.95,80.83
637.95,18.50980392156863,-121.49019607843137,-196.01960784313727,49.69,62.02,64.1
638.0,-93.49019607843137,303.5098039215686,-104.01960784313725,30.05,41.9,35.12
638.05,-77.49019607843137,205.50980392156862,-27.019607843137255,9.05,12.29,17.1
638.1,-29.49019607843137,270.5098039215686,-12.019607843137255,16.05,0.46,-0.43
638.15,145.50980392156862,319.5098039215686,-73.01960784313725,32.64,-6.18,-15.83
638.2,288.5098039215686,-192.0,277.4901960784314,-3.68,-1.98,-22.83
638.25,-290.0,-225.0,277.4901960784314,1.81,-2.4,-13.17
638.3,-306.0,-111.0,153.49019607843138,52.07,-6.01,-1.34
638.35,272.5098039215686,-13.0,184.49019607843138,12.24,-0.72,8.14
638.4,193.50980392156862,-127.0,169.49019607843138,22.46,-4.89,5.93
638.45,129.50980392156862,-111.0,277.4901960784314,-21.67,-19.55,0.82
638.5,129.50980392156862,303.5098039215686,-104.01960784313725,-59.82,-81.36,-46.91
638.55,97.50980392156863,-209.0,-269.52941176470586,-116.73,-193.61,-132.97
638.6,168.01960784313727,139.50980392156862,-216.54901960784315,-229.92,322.42,-206.93
638.65,-127.47058823529412,205.50980392156862,33.94117647058823,-235.13,226.97,-257.08
638.7,-41.96078431372549,-2.5098039215686274,-246.54901960784315,-120.47,205.94,-162.16
638.75,-41.96078431372549,-204.01960784313727,-104.01960784313725,56.9,257.56,-39.07
638.8,-165.98039215686273,177.49019607843138,-283.4901960784314,-166.32,-224.79,-21.64
638.85,-108.49019607843137,-62.0,-301.98039215686276,-303.73,-136.0,-38.09
638.9,138.0,-111.0,-40.98039215686274,-34.83,-147.65,-36.76
638.95,178.49019607843138,215.0,-101.98039215686275,-12.64,-123.68,-13.9
639.0,-59.509803921568626,-160.0,206.01960784313727,-12.53,-86.09,-5.29
639.05,-59.509803921568626,-127.0,221.01960784313727,13.29,-64.25,-14.08
639.1,-186.50980392156862,-143.0,-313.4901960784314,-19.92,-39.68,-39.24
639.15,154.0,-127.0,-190.49019607843138,-20.58,-44.3,-73.96
639.2,-179.0,3.0,298.01960784313724,10.14,-36.0,-31.12
639.25,-188.49019607843138,-214.50980392156862,221.01960784313727,-143.47,21.74,-18.17
639.3,288.5098039215686,-209.0,206.01960784313727,53.08,12.43,-26.71
639.35,265.0,-67.50980392156863,-163.98039215686273,13.22,45.54,-8.06
639.4,-75.50980392156863,199.0,-178.98039215686273,22.39,96.53,-9.18
639.45,-91.50980392156863,232.0,-132.98039215686273,-6.09,143.12,5.79
639.5,19.49019607843137,199.0,-9.980392156862745,-1.54,172.52,55.95
639.55,-202.50980392156862,281.0,-252.49019607843138,22.46,170.31,99.38
639.6,-154.50980392156862,133.0,116.50980392156863,55.01,162.12,125.6
639.65,-11.509803921568627,68.0,286.5098039215686,80.1,176.65,137.71
639.7,-75.50980392156863,-94.0,-249.0,91.83,185.12,138.86
639.75,4.490196078431373,303.5098039215686,-64.0,92.63,204.37,133.89
639.8,90.0,-225.0,243.0,74.78,196.21,101.24
639.85,58.0,205.50980392156862,15.490196078431373,62.36,183.61,95.32
639.9,-36.0,-209.0,107.49019607843137,85.35,146.69,84.09
639.95,170.0,-72.49019607843137,-242.01960784313727,70.58,126.84,94.87
640.0,313.0,58.509803921568626,-258.01960784313724,98.16,109.1,72.92
640.05,-36.0,41.509803921568626,-165.01960784313727,54.48,122.01,55.39
640.1,-211.0,286.5098039215686,-304.01960784313724,48.46,112.0,61.44
640.15,-179.0,303.5098039215686,292.4901960784314,39.22,114.21,77.47
640.2,272.5098039215686,286.5098039215686,277.4901960784314,67.99,101.68,84.75
640.25,193.50980392156862,303.5098039215686,277.4901960784314,54.66,95.06,67.74
640.3,18.50980392156863,270.5098039215686,-289.01960784313724,60.12,79.38,48.53
640.35,-61.490196078431374,270.5098039215686,-89.01960784313725,51.65,50.05,28.09
640.4,-124.49019607843137,303.5098039215686,-27.019607843137255,24.0,10.22,18.5
640.45,-188.49019607843138,-258.0,218.98039215686273,29.14,-14.37,0.02
640.5,81.50980392156863,-78.0,-27.019607843137255,1.18,-7.3,-18.66
640.55,240.50980392156862,-209.0,184.49019607843138,-3.82,-1.46,-23.91
640.6,256.5098039215686,-111.0,107.49019607843137,-10.82,-12.48,-20.13
640.65,272.5098039215686,-176.0,92.49019607843137,32.43,-33.83,-13.66
640.7,193.50980392156862,-78.0,261.4901960784314,16.47,-63.16,-26.68
640.75,65.50980392156863,237.50980392156862,-181.01960784313727,-21.95,-93.72,-68.75
640.8,-29.49019607843137,286.5098039215686,310.98039215686276,-89.04,-211.84,-157.05
640.85,311.01960784313724,188.50980392156862,72.96078431372548,-246.58,263.13,-172.14
640.9,181.0392156862745,172.50980392156862,37.431372549019606,-269.26,133.87,-207.73
640.95,-98.45098039215686,-187.01960784313727,-59.05882352941177,-186.13,272.16,-148.44
641.0,76.54901960784314,-258.52941176470586,-61.509803921568626,-124.95,-316.42,-97.83
641.05,161.50980392156862,-155.01960784313727,109.52941176470588,-198.38,-203.9,-105.32
641.1,288.5098039215686,-149.50980392156862,-301.98039215686276,-56.39,-189.48,-81.98
641.15,-186.50980392156862,-84.50980392156863,294.52941176470586,31.8,-132.99,-15.93
641.2,147.49019607843138,-13.0,-240.98039215686273,19.34,-73.0,24.8
641.25,-27.50980392156863,-209.0,206.01960784313727,1.35,-47.76,4.95
641.3,-75.50980392156863,-127.0,-252.49019607843138,-7.6,-28.16,-13.8
641.35,-250.50980392156862,-29.0,-175.49019607843138,7.3,-28.09,-35.32
641.4,27.0,35.0,298.01960784313724,-7.84,3.19,-37.98
641.45,18.50980392156863,166.0,190.01960784313727,-139.09,-30.58,-1.23
641.5,-227.0,-307.0,-132.98039215686273,53.33,20.27,-8.02
641.55,58.0,-247.50980392156862,-240.98039215686273,54.2,49.25,29.77
641.6,-170.50980392156862,-45.0,-40.98039215686274,74.4,63.95,44.54
641.65,-218.50980392156862,19.0,-129.49019607843138,110.73,111.83,59.87
641.7,115.49019607843137,-94.0,221.01960784313727,256.19,107.56,64.87
641.75,51.490196078431374,52.0,39.509803921568626,99.53,157.26,71.17
641.8,-75.50980392156863,-89.49019607843137,316.5098039215686,198.82,144.8,63.33
641.85,178.49019607843138,188.50980392156862,24.50980392156863,171.84,156.17,59.27
641.9,-27.50980392156863,90.50980392156863,-64.0,191.72,153.02,47.23
641.95,-139.50980392156862,188.50980392156862,196.0,175.16,149.94,-24.82
642.0,313.0,-307.0,-261.5098039215686,164.24,153.93,-46.24
642.05,106.0,-78.0,-122.50980392156863,127.53,190.51,-24.72
642.1,313.0,19.0,215.49019607843138,140.09,184.91,-26.71
642.15,170.0,-176.0,-181.01960784313727,78.53,200.69,-70.67
642.2,-195.0,52.0,230.49019607843138,106.95,141.19,-40.4
642.25,-163.0,-280.5098039215686,-58.01960784313726,66.07,137.41,-16.28
642.3,288.5098039215686,19.0,-196.01960784313727,103.52,94.82,-7.04
642.35,320.5098039215686,-280.5098039215686,-104.01960784313725,38.63,77.6,-4.77
642.4,81.50980392156863,199.0,64.98039215686275,40.17,39.94,-3.61
642.45,81.50980392156863,-280.5098039215686,218.98039215686273,-20.69,21.35,-18.8
642.5,18.50980392156863,-312.5098039215686,280.98039215686276,-16.21,-36.53,-8.72
642.55,224.50980392156862,-263.5098039215686,310.98039215686276,-36.51,-67.47,1.94
642.6,256.5098039215686,281.0,49.98039215686274,-14.88,-76.15,44.54
642.65,-275.0,248.0,-212.01960784313727,-9.77,-97.53,13.84
642.7,-306.0,-62.0,-242.01960784313727,22.95,-126.51,-52.79
642.75,256.5098039215686,-312.5098039215686,92.49019607843137,-54.46,-70.97,43.38
642.8,-84.0,270.5098039215686,261.4901960784314,-14.42,-79.96,66.2
642.85,-282.5098039215686,-45.0,123.49019607843137,-53.17,-6.15,8.45
642.9,-68.0,-280.5098039215686,92.49019607843137,-17.75,-24.49,21.4
642.95,-75.50980392156863,-176.0,153.49019607843138,67.43,-28.16,-30.6
643.0,-298.5098039215686,-127.0,-46.509803921568626,87.66,-20.46,-10.89
643.05,217.0,-160.0,230.49019607843138,15.07,-24.84,21.37
643.1,265.0,-62.0,230.49019607843138,-44.0,-43.39,71.98
643.15,170.0,-13.0,-304.01960784313724,-10.15,-30.3,5.83
643.2,170.0,-13.0,-319.01960784313724,-8.19,-25.19,12.37
643.25,249.0,19.0,261.4901960784314,-1.82,-10.42,0.09
643.3,-282.5098039215686,-29.0,246.49019607843138,-8.58,-8.88,2.05
643.35,-234.50980392156862,-111.0,184.49019607843138,-5.22,-4.22,2.89
643.4,-234.50980392156862,-62.0,246.49019607843138,-1.86,1.37,2.96
643.45,-266.5098039215686,-13.0,215.49019607843138,-7.56,-1.07,5.62
643.5,-266.5098039215686,-62.0,277.4901960784314,0.3,-7.13,4.5
643.55,-266.5098039215686,-29.0,246.49019607843138,2.65,-5.55,8.21
643.6,-298.5098039215686,-62.0,230.49019607843138,-0.88,-2.12,11.32
643.65,-250.50980392156862,-62.0,215.49019607843138,-5.5,-0.86,7.05
643.7,-282.5098039215686,-78.0,246.49019607843138,0.02,-1.81,5.06
643.75,-282.5098039215686,-62.0,277.4901960784314,2.44,-5.06,0.96
643.8,-282.5098039215686,-62.0,277.4901960784314,-5.39,-4.26,4.95
643.85,-250.50980392156862,-45.0,246.49019607843138,-0.11,-4.68,2.92
643.9,-282.5098039215686,-62.0,261.4901960784314,-5.32,-3.17,4.46
643.95,-266.5098039215686,-94.0,261.4901960784314,3.94,-3.24,4.22
644.0,-266.5098039215686,-78.0,215.49019607843138,4.12,-1.84,1.45
644.05,-266.5098039215686,-94.0,184.49019607843138,4.22,2.7,1.17
644.1,-313.5098039215686,-62.0,230.49019607843138,5.55,1.47,0.68
644.15,-266.5098039215686,-78.0,261.4901960784314,0.13,-2.02,0.93
644.2,-266.5098039215686,-62.0,261.4901960784314,4.22,-4.99,1.94
644.25,-234.50980392156862,-78.0,277.4901960784314,2.16,-8.6,2.78
644.3,-266.5098039215686,-62.0,276.4901960784314,3.14,-7.3,2.64
644.35,-298.5098039215686,-62.0,246.49019607843138,1.67,-7.97,2.08
644.4,-234.50980392156862,-78.0,200.49019607843138,-7.74,-4.15,3.17
644.45,-218.50980392156862,-78.0,261.4901960784314,-12.5,-5.38,8.45
644.5,-250.50980392156862,-78.0,261.4901960784314,-27.3,-4.22,10.45
644.55,-298.5098039215686,-78.0,277.4901960784314,-73.22,-13.46,-9.04
644.6,138.0,-258.0,-258.01960784313724,-170.14,-7.16,1.94
644.65,-20.0,-258.0,-165.01960784313727,-86.0,-58.23,-25.1
644.7,42.0,-209.0,-73.01960784313725,-120.61,-99.07,-68.36
644.75,-84.0,188.50980392156862,-165.01960784313727,-92.23,-154.62,-101.05
644.8,-52.0,188.50980392156862,276.4901960784314,-101.33,-179.08,-153.38
644.85,-36.0,156.50980392156862,-46.509803921568626,-151.69,-173.41,-202.48
644.9,201.0,270.5098039215686,-261.5098039215686,-131.85,-118.29,-281.76
644.95,-250.50980392156862,-143.0,43.0,-108.12,-102.4,-299.61
645.0,19.49019607843137,248.0,-79.0,-126.07,-64.21,-306.92
645.05,-250.50980392156862,111.49019607843137,-18.0,-0.42,-68.83,-248.4
645.1,-266.5098039215686,-57.01960784313726,-126.0,-0.6,-44.93,-203.71
645.15,-186.50980392156862,-138.01960784313727,-187.0,43.07,-68.45,-150.54
645.2,-170.50980392156862,-40.01960784313726,-126.0,-38.5,-109.01,-197.65
645.25,-209.01960784313727,-302.01960784313724,-141.0,138.9,-15.6,-108.72
645.3,-124.49019607843137,-29.529411764705884,224.50980392156862,59.59,-31.91,-76.27
645.35,-139.50980392156862,226.49019607843138,-126.0,-241.89,37.8,-54.36
645.4,-84.0,62.490196078431374,61.490196078431374,39.12,-19.73,-24.12
645.45,186.0,128.9607843137255,27.0,13.43,-23.37,-17.93
645.5,27.0,-214.50980392156862,-18.0,119.79,-33.52,-8.51
645.55,154.0,269.98039215686276,43.0,46.19,-18.43,6.35
645.6,-36.0,95.49019607843137,-110.0,114.47,-29.91,18.01
645.65,154.0,-204.01960784313727,147.50980392156862,238.51,-0.65,19.02
645.7,138.0,307.4901960784314,-3.0,101.77,-8.46,8.14
645.75,201.0,-214.50980392156862,9.509803921568627,34.64,7.91,-20.83
645.8,27.0,-84.50980392156863,132.50980392156862,10.24,1.75,-44.49
645.85,42.0,-133.50980392156862,132.50980392156862,90.53,-28.93,21.82
645.9,186.0,89.98039215686275,55.509803921568626,4.47,-7.51,-47.19
645.95,-4.0,-312.5098039215686,132.50980392156862,14.58,-14.09,6.11
646.0,-131.0,-138.01960784313727,-160.49019607843138,39.64,0.18,-4.14
646.05,-68.0,291.4901960784314,-98.49019607843137,134.42,-10.14,-35.43
646.1,11.0,275.4901960784314,-52.490196078431374,123.4,-61.62,-48.83
646.15,74.0,-84.50980392156863,-160.49019607843138,-63.39,-59.42,-24.75
646.2,-116.0,313.0,-236.49019607843138,-22.44,-69.15,-46.73
646.25,-195.0,-286.01960784313724,-221.49019607843138,13.46,-67.01,-53.24
646.3,-275.0,-2.5098039215686274,-67.49019607843137,-117.95,-66.31,-79.98
646.35,193.50980392156862,199.0,9.509803921568627,111.43,-88.29,-91.43
646.4,-20.0,-286.01960784313724,267.01960784313724,-38.5,-74.96,-104.03
646.45,81.50980392156863,19.0,55.509803921568626,66.91,-88.85,-110.05
646.5,-275.0,46.490196078431374,-221.49019607843138,13.99,-67.82,-121.21
646.55,-13.490196078431373,-263.5098039215686,-6.490196078431373,8.14,-45.59,-97.06
646.6,-108.49019607843137,68.0,55.509803921568626,-20.83,-9.51,-76.38
646.65,-188.49019607843138,35.0,162.50980392156862,-22.16,-12.69,-56.85
646.7,-156.49019607843138,183.0,-21.49019607843137,-11.1,-20.71,-51.35
646.75,-172.49019607843138,183.0,-21.49019607843137,9.44,-26.2,-43.62
646.8,-188.49019607843138,166.0,9.509803921568627,6.71,-20.71,-41.06
646.85,-220.49019607843138,166.0,39.509803921568626,22.63,-30.54,-50.34
646.9,-204.49019607843138,-13.0,86.50980392156863,45.0,-46.78,-76.38
646.95,-267.4901960784314,117.0,9.509803921568627,128.82,-115.7,-117.26
647.0,-252.49019607843138,3.0,-113.49019607843137,235.4,-115.07,-96.64
647.05,9.019607843137255,-13.0,101.50980392156863,125.04,-39.68,-17.93
647.1,-229.98039215686273,101.0,89.0,78.7,32.97,38.38
647.15,152.01960784313727,270.5098039215686,-252.49019607843138,-36.47,116.06,135.43
647.2,-283.4901960784314,297.0,9.509803921568627,18.61,31.12,82.02
647.25,-54.98039215686274,-45.0,-107.50980392156863,-66.78,55.09,216.98
647.3,-133.98039215686273,215.0,196.0,-10.92,-25.4,247.12
647.35,-54.98039215686274,150.0,58.0,-82.95,-10.17,224.65
647.4,126.52941176470588,199.0,196.0,-48.86,-10.94,149.29
647.45,-213.98039215686273,264.0,-49.0,-65.73,-17.28,91.47
647.5,9.019607843137255,-198.50980392156862,39.509803921568626,-79.07,-89.45,-3.51
647.55,-29.49019607843137,3.0,255.50980392156862,-28.25,-85.32,4.92
647.6,-195.0,-29.0,-221.49019607843138,-85.02,-31.17,3.31
647.65,224.50980392156862,303.5098039215686,86.50980392156863,0.9,-44.3,-6.45
647.7,-243.0,19.0,-6.490196078431373,67.99,-103.76,25.53
647.75,263.01960784313724,307.4901960784314,304.0,-17.64,-148.28,2.26
647.8,31.529411764705884,297.0,200.49019607843138,-15.65,-102.26,-4.8
647.85,190.52941176470588,-204.01960784313727,-64.0,-8.12,-21.51,1.17
647.9,-315.4901960784314,128.49019607843138,73.0,-14.74,30.42,-15.02
647.95,113.50980392156863,264.0,-276.5098039215686,13.39,46.8,-28.74
648.0,224.50980392156862,-263.5098039215686,-276.5098039215686,22.81,70.98,-36.51
648.05,34.509803921568626,248.0,181.0,60.78,90.9,-23.07
648.1,-13.490196078431373,-296.5098039215686,-64.0,75.34,92.19,-16.53
648.15,-77.49019607843137,166.0,-3.0,88.61,66.26,-9.98
648.2,-45.490196078431374,199.0,-3.0,87.52,43.4,-6.73
648.25,-93.49019607843137,133.0,-203.0,105.3,20.09,-12.71
648.3,-124.49019607843137,215.0,162.50980392156862,30.75,-34.46,-2.11
648.35,-61.490196078431374,-214.50980392156862,-218.0,145.69,-80.31,28.72
648.4,311.01960784313724,171.98039215686273,-218.0,101.63,-59.17,53.36
648.45,-124.49019607843137,-138.01960784313727,-187.0,145.76,-30.33,24.45
648.5,-124.49019607843137,-182.50980392156862,101.50980392156863,98.79,-19.94,28.61
648.55,65.50980392156863,13.490196078431373,-126.0,127.84,-42.09,33.51
648.6,97.50980392156863,62.490196078431374,-141.0,135.37,-49.93,29.7
648.65,-13.490196078431373,-67.50980392156863,-249.0,119.69,-52.03,24.2
648.7,-124.49019607843137,13.490196078431373,255.50980392156862,143.98,-53.61,25.32
648.75,-172.49019607843138,111.49019607843137,193.50980392156862,123.89,-51.3,41.14
648.8,-172.49019607843138,62.490196078431374,255.50980392156862,156.33,-62.67,53.53
648.85,-45.490196078431374,62.490196078431374,255.50980392156862,142.33,-48.78,59.1
648.9,18.50980392156863,-84.50980392156863,224.50980392156862,160.53,-39.22,58.68
648.95,81.50980392156863,-18.50980392156863,70.50980392156863,164.31,-28.51,56.61
649.0,34.509803921568626,62.490196078431374,70.50980392156863,124.66,-5.9,58.36
649.05,-93.49019607843137,30.49019607843137,255.50980392156862,82.87,-3.21,50.8
649.1,-77.49019607843137,-84.50980392156863,-295.0,80.07,-23.68,44.89
649.15,-252.49019607843138,62.490196078431374,-295.0,56.79,-30.12,56.58
649.2,216.01960784313727,-263.5098039215686,286.5098039215686,46.22,-22.81,32.64
649.25,104.01960784313725,199.0,147.50980392156862,12.59,-18.96,-7.88
649.3,216.01960784313727,-45.0,193.50980392156862,16.86,-22.18,-19.26
649.35,279.01960784313724,166.0,209.50980392156862,6.39,-18.96,-5.15
649.4,-188.49019607843138,166.0,116.50980392156863,26.97,-36.53,12.86
649.45,113.50980392156863,264.0,209.50980392156862,-14.42,-26.76,34.53
649.5,272.5098039215686,199.0,101.50980392156863,-37.87,1.58,30.54
649.55,240.50980392156862,183.0,39.509803921568626,-5.99,50.12,30.54
649.6,129.50980392156862,68.0,-160.49019607843138,40.41,26.04,21.19
649.65,-124.49019607843137,35.0,-98.49019607843137,6.74,37.42,23.75
649.7,104.01960784313725,3.0,24.50980392156863,-8.93,47.08,49.72
649.75,-188.49019607843138,-67.50980392156863,313.01960784313724,63.27,7.84,76.39
649.8,2.5098039215686274,-318.01960784313724,-144.49019607843138,63.06,-0.23,69.53
649.85,-140.49019607843138,297.0,101.50980392156863,66.94,-28.83,60.88
649.9,-108.49019607843137,-116.50980392156863,-280.0,40.03,-23.72,41.81
649.95,-77.49019607843137,-100.50980392156863,9.509803921568627,45.21,-24.52,31.48
650.0,81.50980392156863,-214.50980392156862,116.50980392156863,25.26,-31.56,25.08
650.05,97.50980392156863,-198.50980392156862,147.50980392156862,11.47,-37.02,12.51
650.1,97.50980392156863,-198.50980392156862,193.50980392156862,-7.0,-24.42,-6.03
650.15,18.50980392156863,-231.50980392156862,-6.490196078431373,-4.62,-8.63,-15.48
650.2,-29.49019607843137,-133.50980392156862,-129.49019607843138,-5.46,4.55,-28.88
650.25,-45.490196078431374,-198.50980392156862,-21.49019607843137,-16.35,21.49,-48.76
650.3,-140.49019607843138,-133.50980392156862,-21.49019607843137,-8.16,40.95,-59.93
650.35,-267.4901960784314,-198.50980392156862,-221.49019607843138,28.48,9.1,-62.87
650.4,295.01960784313724,13.490196078431373,86.50980392156863,-70.18,11.41,-47.75
650.45,231.01960784313727,-62.0,-249.0,-106.12,38.89,-52.61
650.5,-93.49019607843137,166.0,70.50980392156863,-61.78,35.98,-54.26
650.55,113.50980392156863,-231.50980392156862,163.50980392156862,-53.13,28.81,-57.27
650.6,145.50980392156862,133.0,178.50980392156862,-72.59,25.8,-52.93
650.65,65.50980392156863,52.0,39.509803921568626,-57.79,19.01,-43.65
650.7,49.509803921568626,215.0,-83.49019607843137,-39.1,21.67,-30.0
650.75,65.50980392156863,166.0,-236.49019607843138,-23.31,5.5,-7.15
650.8,-29.49019607843137,313.0,-144.49019607843138,-44.84,34.37,-4.8
650.85,-77.49019607843137,-13.0,159.01960784313727,53.99,13.37,22.98
650.9,2.5098039215686274,13.490196078431373,67.01960784313725,75.38,-12.73,76.49
650.95,-108.49019607843137,-84.50980392156863,-252.49019607843138,110.03,-64.98,118.88
651.0,49.509803921568626,-214.50980392156862,101.50980392156863,71.21,-71.56,99.8
651.05,2.5098039215686274,281.0,-6.490196078431373,44.51,-19.41,57.35
651.1,208.50980392156862,166.0,-144.49019607843138,67.01,27.44,-6.83
651.15,320.5098039215686,166.0,-36.490196078431374,58.12,85.26,-77.95
651.2,224.50980392156862,-312.5098039215686,-175.49019607843138,-12.67,101.82,-79.07
651.25,81.50980392156863,-312.5098039215686,86.50980392156863,-79.31,77.07,-65.35
651.3,-124.49019607843137,-51.509803921568626,270.5098039215686,-20.3,-6.29,-46.31
651.35,-252.49019607843138,-165.50980392156862,-310.0,-92.16,-39.71,-55.9
651.4,168.01960784313727,117.0,-249.0,-143.82,-66.17,-118.41
651.45,-22.980392156862745,199.0,239.50980392156862,-139.65,-49.23,-127.93
651.5,41.01960784313726,215.0,39.509803921568626,-116.59,3.01,-105.29
651.55,216.01960784313727,101.0,101.50980392156863,-159.99,26.92,-114.7
651.6,-204.49019607843138,19.0,224.50980392156862,-156.56,31.82,-123.63
651.65,-13.490196078431373,232.0,132.50980392156862,-83.16,30.84,-128.6
651.7,-61.490196078431374,-198.50980392156862,86.50980392156863,-39.2,24.36,-118.52
651.75,-93.49019607843137,-165.50980392156862,70.50980392156863,-45.08,12.08,-68.89
651.8,2.5098039215686274,-165.50980392156862,-21.49019607843137,-51.94,-7.02,-20.9
651.85,65.50980392156863,-231.50980392156862,-52.490196078431374,-43.89,-14.41,0.47
651.9,-13.490196078431373,-198.50980392156862,-113.49019607843137,-2.35,-22.74,1.21
651.95,-188.49019607843138,-84.50980392156863,-190.49019607843138,22.6,-10.42,37.85
652.0,-283.4901960784314,-84.50980392156863,-298.4901960784314,60.05,-12.17,74.95
652.05,-315.4901960784314,-214.50980392156862,-206.49019607843138,13.04,44.8,90.04
652.1,72.01960784313725,248.0,-129.49019607843138,-15.19,71.12,103.16
652.15,279.01960784313724,248.0,-6.490196078431373,2.93,79.8,118.0
652.2,-156.49019607843138,232.0,116.50980392156863,46.54,76.23,142.71
652.25,-124.49019607843137,-149.50980392156862,224.50980392156862,72.54,144.24,190.49
652.3,168.01960784313727,-138.01960784313727,-298.4901960784314,-58.7,171.57,220.2
652.35,18.50980392156863,-18.50980392156863,-83.49019607843137,-48.93,162.54,261.96
652.4,256.5098039215686,291.4901960784314,-160.49019607843138,-37.73,136.75,316.38
652.45,-52.0,-204.01960784313727,-283.4901960784314,-29.33,108.75,327.65
652.5,154.0,-187.01960784313727,-6.490196078431373,22.21,29.26,301.82
652.55,297.0,-116.50980392156863,39.509803921568626,48.99,-0.02,221.67
652.6,27.0,-78.0,132.50980392156862,20.32,-13.08,121.43
652.65,-4.0,-192.0,286.5098039215686,-9.14,-15.42,74.32
652.7,201.0,-176.0,178.50980392156862,3.31,-16.89,33.37
652.75,-250.50980392156862,3.0,209.50980392156862,-24.22,-0.13,30.57
652.8,4.490196078431373,319.5098039215686,132.50980392156862,-33.88,2.91,30.64
652.85,35.490196078431374,-176.0,101.50980392156863,0.86,6.34,46.53
652.9,35.490196078431374,-209.0,-175.49019607843138,-47.08,28.98,38.8
652.95,147.49019607843138,-45.0,9.509803921568627,-54.5,22.89,42.93
653.0,-225.01960784313727,-160.0,-52.490196078431374,-110.18,8.19,38.62
653.05,-193.01960784313727,-111.0,-6.490196078431373,-24.78,0.67,48.63
653.1,-273.01960784313724,215.0,-98.49019607843137,17.84,2.17,23.47
653.15,178.49019607843138,35.0,39.509803921568626,-69.48,9.52,-16.21
653.2,-139.50980392156862,-258.0,39.509803921568626,-42.81,-2.75,-57.97
653.25,-43.509803921568626,-13.0,163.50980392156862,1.67,-30.4,-115.89
653.3,-266.5098039215686,-307.0,-156.0,-65.0,-64.04,-197.51
653.35,297.0,-127.0,-79.0,-88.34,-77.55,-257.82
653.4,74.0,264.0,-156.0,-61.6,-87.24,-293.24
653.45,-68.0,-116.50980392156863,-310.0,-66.89,-72.79,-280.95
653.5,288.5098039215686,-253.01960784313727,55.509803921568626,-78.33,0.32,-266.74
653.55,-13.490196078431373,220.98039215686273,-190.49019607843138,-110.32,21.39,-235.35
653.6,193.50980392156862,-220.01960784313727,116.50980392156863,-149.8,53.34,-193.91
653.65,18.50980392156863,-40.01960784313726,-21.49019607843137,-70.14,27.69,-186.66
653.7,288.5098039215686,242.49019607843138,116.50980392156863,-25.48,29.75,-186.24
653.75,193.50980392156862,258.4901960784314,101.50980392156863,44.79,13.76,-188.66
653.8,224.50980392156862,62.490196078431374,132.50980392156862,131.52,-8.0,-208.22
653.85,97.50980392156863,30.49019607843137,224.50980392156862,19.24,-29.04,-197.2
653.9,-77.49019607843137,-296.5098039215686,147.50980392156862,-114.45,-0.72,-169.58
653.95,-236.49019607843138,-296.5098039215686,178.50980392156862,-119.42,1.33,-114.04
654.0,263.01960784313724,-84.50980392156863,86.50980392156863,-85.96,0.81,-78.51
654.05,57.01960784313726,-100.50980392156863,70.50980392156863,-57.23,57.44,-15.69
654.1,-117.98039215686275,-51.509803921568626,-175.49019607843138,-158.27,79.7,71.38
654.15,-6.980392156862745,-263.5098039215686,70.50980392156863,-136.75,101.57,143.2
654.2,-6.980392156862745,-312.5098039215686,-113.49019607843137,-18.83,95.62,181.53
654.25,200.01960784313727,-214.50980392156862,-52.490196078431374,20.11,91.28,167.46
654.3,-315.4901960784314,199.0,147.50980392156862,2.72,83.97,112.75
654.35,-267.4901960784314,101.0,209.50980392156862,-32.52,71.19,29.94
654.4,-61.490196078431374,52.0,-295.0,-42.14,55.83,-45.75
654.45,81.50980392156863,35.0,-141.0,-36.54,39.83,-132.83
654.5,65.50980392156863,117.0,-79.0,-31.75,20.13,-177.77
654.55,-29.49019607843137,215.0,-126.0,-4.27,-24.38,-224.6
654.6,-140.49019607843138,264.0,-187.0,-42.77,-65.33,-286.94
654.65,-86.98039215686275,264.0,-156.0,-99.75,-20.22,-259.71
654.7,-292.98039215686276,-182.50980392156862,-310.0,59.8,-99.88,-175.53
654.75,295.01960784313724,-84.50980392156863,-236.49019607843138,90.67,-75.1,-100.28
654.8,279.01960784313724,-133.50980392156862,-298.4901960784314,-114.56,-23.58,-57.02
654.85,-108.49019607843137,199.0,-98.49019607843137,-105.77,-3.63,0.79
654.9,113.50980392156863,-198.50980392156862,-175.49019607843138,34.43,-21.2,32.88
654.95,208.50980392156862,-100.50980392156863,-252.49019607843138,141.98,-30.93,34.21
655.0,-315.4901960784314,-165.50980392156862,-175.49019607843138,-32.94,70.67,44.75
655.05,110.52941176470588,166.0,178.50980392156862,-261.38,153.23,146.14
655.1,-260.98039215686276,52.0,-310.0,-220.82,99.82,235.67
655.15,184.01960784313727,-263.5098039215686,101.50980392156863,4.08,58.49,243.09
655.2,279.01960784313724,-214.50980392156862,147.50980392156862,65.72,59.4,169.31
655.25,311.01960784313724,133.0,301.5098039215686,-12.5,72.38,80.55
655.3,-204.49019607843138,-94.0,-172.0,-66.15,75.53,-11.38
655.35,-93.49019607843137,-13.0,-126.0,-54.81,68.43,-118.52
655.4,-93.49019607843137,199.0,-218.0,-10.08,12.67,-181.34
655.45,18.50980392156863,-280.5098039215686,301.5098039215686,-5.18,-44.82,-207.77
655.5,-45.490196078431374,-182.50980392156862,55.509803921568626,5.87,-62.5,-181.59
655.55,-61.490196078431374,-165.50980392156862,-113.49019607843137,-8.26,-67.47,-164.51
655.6,-61.490196078431374,-247.50980392156862,-113.49019607843137,-17.71,-45.7,-175.6
655.65,-283.4901960784314,297.0,24.50980392156863,-106.86,-19.59,-164.33
655.7,216.01960784313727,313.0,101.50980392156863,-101.78,-12.87,-120.86
655.75,231.01960784313727,-231.50980392156862,24.50980392156863,-6.9,-15.0,-72.49
655.8,263.01960784313724,-133.50980392156862,-129.49019607843138,-15.4,11.87,-19.36
655.85,-220.49019607843138,-312.5098039215686,101.50980392156863,-64.26,23.7,32.18
655.9,-252.49019607843138,297.0,162.50980392156862,-71.72,24.71,52.87
655.95,295.01960784313724,297.0,286.5098039215686,-109.41,16.42,93.64
656.0,311.01960784313724,183.0,-233.0,-98.84,-18.4,82.86
656.05,-172.49019607843138,166.0,-233.0,-65.94,-14.02,10.48
656.1,-204.49019607843138,3.0,255.50980392156862,-143.92,3.64,-0.78
656.15,-140.49019607843138,35.0,209.50980392156862,-84.63,6.3,1.63
656.2,65.50980392156863,177.49019607843138,-252.49019607843138,-79.28,49.32,122.31
656.25,-108.49019607843137,187.98039215686273,-267.4901960784314,-50.16,61.74,243.86
656.3,311.01960784313724,-29.529411764705884,-298.4901960784314,-34.76,63.7,296.75
656.35,-86.98039215686275,302.98039215686276,101.50980392156863,20.53,58.31,321.25
656.4,-54.98039215686274,40.98039215686274,-310.0,102.54,64.54,284.43
656.45,184.01960784313727,-269.01960784313724,-279.0,105.3,67.17,218.14
656.5,-267.4901960784314,-263.5098039215686,-233.0,86.23,36.61,141.77
656.55,113.50980392156863,84.0,-156.0,84.3,9.38,77.82
656.6,304.5098039215686,-78.0,-80.0,49.62,-16.09,13.6
656.65,-227.0,-94.0,-218.0,39.4,-58.89,-65.04
656.7,-84.0,-209.0,-264.0,43.88,-77.2,-140.5
656.75,-290.0,166.0,286.5098039215686,14.13,-103.45,-196.46
656.8,288.5098039215686,166.0,132.50980392156862,-58.1,-111.25,-226.0
656.85,2.5098039215686274,-35.509803921568626,101.50980392156863,-86.8,-126.2,-233.98
656.9,-29.49019607843137,-18.50980392156863,9.509803921568627,-102.69,-51.12,-216.52
656.95,-315.4901960784314,155.98039215686273,-144.49019607843138,-47.88,-50.07,-148.48
657.0,272.5098039215686,122.98039215686275,-283.4901960784314,-46.27,4.31,-40.33
657.05,208.50980392156862,199.47058823529412,82.01960784313725,-32.41,37.21,96.13
657.1,208.50980392156862,166.47058823529412,236.01960784313727,-71.89,79.35,198.5
657.15,-29.49019607843137,-258.52941176470586,-190.49019607843138,11.5,75.15,271.97
657.2,-204.49019607843138,171.98039215686273,86.50980392156863,55.39,77.11,268.61
657.25,263.01960784313724,242.49019607843138,286.5098039215686,90.01,53.31,222.13
657.3,-204.49019607843138,-247.50980392156862,316.5098039215686,96.9,10.05,138.65
657.35,97.50980392156863,3.0,-218.0,138.38,-26.83,45.83
657.4,320.5098039215686,3.0,-249.0,-13.76,-70.83,-14.39
657.45,-52.0,-290.0,-156.0,57.18,-79.72,-75.68
657.5,-68.0,3.0,270.5098039215686,-1.89,-102.5,-104.38
657.55,58.0,19.0,286.5098039215686,-67.97,-126.16,-126.78
657.6,138.0,232.0,147.50980392156862,-179.27,-93.82,-166.85
657.65,42.0,-149.50980392156862,147.50980392156862,-29.51,-115.7,-115.37
657.7,42.0,-290.52941176470586,147.50980392156862,-3.5,-96.41,-66.33
657.75,-163.0,57.98039215686274,116.50980392156863,81.43,-97.29,1.17
657.8,304.5098039215686,138.98039215686273,-283.4901960784314,143.21,-97.81,54.23
657.85,113.50980392156863,-204.01960784313727,-40.98039215686274,93.05,9.66,24.17
657.9,295.01960784313724,-263.5098039215686,217.52941176470588,86.47,142.1,-43.02
657.95,-117.98039215686275,19.0,-198.47058823529412,55.57,203.49,-86.35
658.0,57.01960784313726,-62.0,32.529411764705884,-32.48,243.71,-102.35
658.05,200.01960784313727,313.0,-117.98039215686275,32.96,253.23,-113.9
658.1,184.01960784313727,-73.01960784313725,206.01960784313727,86.4,223.02,-135.21
658.15,200.01960784313727,-286.01960784313724,-126.0,16.61,115.05,-95.49
658.2,-172.49019607843138,-2.5098039215686274,227.0,168.27,10.96,-19.22
658.25,177.50980392156862,160.49019607843138,58.0,3.84,2.38,10.97
658.3,-259.0,297.0,135.0,12.69,0.67,5.44
658.35,-36.0,52.0,-6.490196078431373,-76.3,-19.03,-5.75
658.4,-163.0,-62.0,86.50980392156863,-1.12,-67.36,-13.48
658.45,-179.0,166.0,-37.490196078431374,24.1,-118.15,15.8
658.5,-211.0,68.0,286.5098039215686,2.47,-161.62,35.72
658.55,-116.0,183.0,-67.49019607843137,81.96,-180.1,75.34
658.6,224.50980392156862,-84.50980392156863,39.509803921568626,132.71,-202.11,123.22
658.65,-140.49019607843138,-198.50980392156862,9.509803921568627,292.06,-227.73,200.53
658.7,-156.49019607843138,62.490196078431374,52.01960784313726,205.33,-150.24,242.46
658.75,-70.98039215686275,101.0,-252.49019607843138,139.81,-138.97,278.13
658.8,216.01960784313727,-45.0,206.01960784313727,168.02,-144.47,300.42
658.85,136.01960784313727,68.0,144.01960784313727,125.11,-80.1,271.02
658.9,88.01960784313725,-62.0,-313.4901960784314,45.94,-11.89,228.32
658.95,216.01960784313727,-94.0,-36.490196078431374,59.91,-1.49,141.03
659.0,-299.4901960784314,297.0,9.509803921568627,-14.0,51.73,89.72
659.05,-299.4901960784314,297.0,301.5098039215686,14.86,12.67,69.91
659.1,-156.49019607843138,-133.50980392156862,-187.0,1.81,-4.64,34.7
659.15,216.01960784313727,62.490196078431374,-141.0,-21.28,-19.31,35.33
659.2,-283.4901960784314,-67.50980392156863,-172.0,-13.06,-36.95,15.84
659.25,-93.49019607843137,-198.50980392156862,-310.0,3.24,-49.09,-14.74
659.3,-61.490196078431374,-214.50980392156862,193.50980392156862,29.21,-34.46,-46.24
659.35,-188.49019607843138,-231.50980392156862,86.50980392156863,49.37,-14.97,-84.71
659.4,-204.49019607843138,-133.50980392156862,-6.490196078431373,-5.85,8.09,-97.94
659.45,-156.49019607843138,-263.5098039215686,-6.490196078431373,-41.23,37.8,-104.97
659.5,-156.49019607843138,-182.50980392156862,24.50980392156863,-71.72,51.98,-139.24
659.55,295.01960784313724,-100.50980392156863,39.509803921568626,-106.96,67.17,-121.91
659.6,-172.49019607843138,13.490196078431373,132.50980392156862,-46.24,22.58,-41.27
659.65,177.50980392156862,-67.50980392156863,70.50980392156863,-24.29,7.46,-16.56
659.7,65.50980392156863,-198.50980392156862,24.50980392156863,-39.73,16.17,-4.24
659.75,161.50980392156862,-280.5098039215686,55.509803921568626,-14.56,-3.14,-7.57
659.8,224.50980392156862,-280.5098039215686,24.50980392156863,-10.01,-1.7,-8.48
659.85,129.50980392156862,-280.5098039215686,-36.490196078431374,2.37,-5.27,10.06
659.9,129.50980392156862,-263.5098039215686,-67.49019607843137,-0.91,-8.7,22.7
659.95,161.50980392156862,-280.5098039215686,-67.49019607843137,18.4,-11.05,35.16
660.0,177.50980392156862,-198.50980392156862,-160.49019607843138,26.1,5.78,43.49
660.05,81.50980392156863,-133.50980392156862,-113.49019607843137,-24.29,15.26,31.27
660.1,-93.49019607843137,-133.50980392156862,-37.490196078431374,-9.0,0.74,39.95
660.15,-188.49019607843138,160.49019607843138,-175.49019607843138,44.51,-13.46,86.82
660.2,-77.49019607843137,79.49019607843137,-129.49019607843138,57.35,-12.41,93.15
660.25,-140.49019607843138,-100.50980392156863,-98.49019607843137,40.52,24.82,77.61
660.3,-252.49019607843138,-100.50980392156863,55.509803921568626,17.49,28.25,72.54
660.35,-108.49019607843137,-263.5098039215686,132.50980392156862,-0.91,28.39,54.37
660.4,2.5098039215686274,-263.5098039215686,224.50980392156862,10.42,13.83,42.75
660.45,161.50980392156862,-198.50980392156862,301.5098039215686,5.1,8.19,25.43
660.5,145.50980392156862,-198.50980392156862,-310.0,7.48,-2.23,2.43
660.55,113.50980392156863,-133.50980392156862,-264.0,-7.53,-24.35,-17.61
660.6,97.50980392156863,-35.509803921568626,286.5098039215686,21.41,-48.67,-52.82
660.65,65.50980392156863,128.49019607843138,162.50980392156862,19.1,-47.9,-48.13
660.7,34.509803921568626,193.49019607843138,-52.490196078431374,34.5,-60.57,26.48
660.75,224.50980392156862,95.49019607843137,-267.4901960784314,30.89,-62.15,48.95
660.8,145.50980392156862,-165.50980392156862,313.01960784313724,55.95,-59.07,64.63
660.85,288.5098039215686,-100.50980392156863,-283.4901960784314,62.67,-50.98,85.28
660.9,-306.0,-116.50980392156863,-175.49019607843138,61.38,-42.16,92.66
660.95,-306.0,-67.50980392156863,-36.490196078431374,39.19,-36.21,113.21
661.0,320.5098039215686,-2.5098039215686274,55.509803921568626,23.68,-50.14,140.33
661.05,-227.0,307.4901960784314,116.50980392156863,17.24,-66.17,178.97
661.1,-211.0,-155.01960784313727,193.50980392156862,18.78,-94.8,208.97
661.15,-243.0,253.98039215686273,147.50980392156862,21.48,-112.09,241.2
661.2,-290.0,187.98039215686273,239.50980392156862,73.84,-125.81,223.88
661.25,-275.0,24.980392156862745,-295.0,115.59,-153.32,202.98
661.3,320.5098039215686,-106.01960784313725,27.0,39.05,-159.73,181.18
661.35,304.5098039215686,46.490196078431374,150.0,-4.87,-182.69,160.14
661.4,-195.0,62.490196078431374,135.0,-18.76,-174.11,130.32
661.45,-211.0,62.490196078431374,27.0,-93.7,-146.46,91.96
661.5,-259.0,95.49019607843137,-95.0,-76.44,-108.49,59.9
661.55,224.50980392156862,242.49019607843138,301.5098039215686,-178.54,-33.94,24.41
661.6,97.50980392156863,-318.01960784313724,101.50980392156863,-302.47,19.5,8.52
661.65,81.50980392156863,177.49019607843138,209.50980392156862,-257.29,16.63,11.6
661.7,-290.0,-220.01960784313727,286.5098039215686,-148.75,6.97,-3.26
661.75,-211.0,-155.01960784313727,-218.0,-141.09,-2.33,-6.59
661.8,-116.0,258.4901960784314,-79.0,-140.0,-24.8,-27.1
661.85,42.0,209.49019607843138,104.0,-132.44,-31.45,-42.78
661.9,27.0,128.49019607843138,150.0,-37.66,-51.3,-42.18
661.95,11.0,-220.01960784313727,-276.5098039215686,-33.85,-69.11,-40.89
662.0,-52.0,144.49019607843138,-46.509803921568626,2.61,-82.87,-28.08
662.05,-52.0,-269.01960784313724,-169.50980392156862,19.17,-74.33,-54.89
662.1,-4.0,-318.01960784313724,138.49019607843138,13.08,-47.94,-70.81
662.15,-211.0,242.49019607843138,46.490196078431374,161.51,-79.79,-66.79
662.2,-4.0,307.4901960784314,-92.50980392156863,165.85,-76.64,-57.83
662.25,27.0,30.49019607843137,-122.50980392156863,-308.8,-52.14,-19.19
662.3,-20.0,-106.01960784313725,43.0,194.83,2.59,-18.56
662.35,-147.0,30.49019607843137,227.0,97.92,44.14,1.03
662.4,-116.0,160.49019607843138,-187.0,-6.09,80.22,-14.25
662.45,-116.0,46.490196078431374,-126.0,3.21,96.57,-14.88
662.5,-52.0,-187.01960784313727,-249.0,68.06,97.2,-14.04
662.55,-52.0,57.98039215686274,301.5098039215686,52.31,82.15,-3.65
662.6,-52.0,8.980392156862745,239.50980392156862,86.65,36.61,34.88
662.65,138.0,-204.01960784313727,132.50980392156862,126.41,-9.89,53.5
662.7,122.0,291.4901960784314,209.50980392156862,113.46,-14.62,64.24
662.75,74.0,160.49019607843138,270.5098039215686,130.33,-21.65,89.3
662.8,170.0,30.49019607843137,-310.0,134.21,-35.69,123.04
662.85,201.0,-35.509803921568626,-280.0,118.85,-31.87,155.0
662.9,186.0,-84.50980392156863,286.5098039215686,91.69,-33.62,188.53
662.95,106.0,62.490196078431374,55.509803921568626,59.73,-20.74,200.15
663.0,-100.0,226.49019607843138,-129.49019607843138,-46.87,-44.68,161.58
663.05,-147.0,-51.509803921568626,-190.49019607843138,-25.06,-66.56,148.14
663.1,42.0,-51.509803921568626,282.01960784313724,-46.87,-58.23,113.91
663.15,-52.0,-116.50980392156863,-206.49019607843138,-24.29,-27.78,88.85
663.2,27.0,-214.50980392156862,221.01960784313727,-27.76,-29.35,76.04
663.25,201.0,-296.5098039215686,-113.49019607843137,-26.67,-17.21,58.15
663.3,297.0,-100.50980392156863,-298.4901960784314,-44.1,-12.38,60.67
663.35,297.0,-100.50980392156863,-113.49019607843137,-54.57,-3.49,40.79
663.4,170.0,297.0,-267.4901960784314,-21.18,-3.8,26.34
663.45,201.0,-182.50980392156862,-283.4901960784314,-25.83,-1.67,27.77
663.5,313.0,-296.5098039215686,-160.49019607843138,-22.61,6.62,15.38
663.55,233.0,199.0,-206.49019607843138,-15.12,3.68,10.45
663.6,217.0,-182.50980392156862,-175.49019607843138,-21.67,8.12,5.02
663.65,265.0,-296.5098039215686,-237.49019607843138,-11.59,8.89,7.86
663.7,-282.5098039215686,-149.50980392156862,-144.49019607843138,-20.2,10.01,2.82
663.75,313.0,-214.50980392156862,-129.49019607843138,-16.31,12.46,0.96
663.8,297.0,-133.50980392156862,-175.49019607843138,-22.23,11.97,-6.48
663.85,313.0,248.0,-129.49019607843138,-9.59,1.05,-1.41
663.9,-313.5098039215686,-182.50980392156862,-113.49019607843137,4.26,0.04,-6.06
663.95,265.0,-214.50980392156862,-236.49019607843138,0.34,-0.2,0.72
664.0,-313.5098039215686,-67.50980392156863,-160.49019607843138,-2.56,1.09,-7.71
664.05,281.0,-280.5098039215686,-83.49019607843137,-12.92,1.02,0.26
664.1,-282.5098039215686,-51.509803921568626,-98.49019607843137,1.77,0.77,-2.39
664.15,-298.5098039215686,-182.50980392156862,-175.49019607843138,-2.0,0.98,1.63
664.2,313.0,-100.50980392156863,-175.49019607843138,-4.87,-3.84,-1.86
664.25,-313.5098039215686,-198.50980392156862,9.509803921568627,-5.74,-0.3,-1.97
664.3,-313.5098039215686,-51.509803921568626,-160.49019607843138,4.47,-1.95,-2.25
664.35,313.0,-100.50980392156863,-175.49019607843138,-0.63,-0.48,-1.44
664.4,297.0,-100.50980392156863,-160.49019607843138,-4.83,2.0,-2.07
664.45,297.0,-182.50980392156862,-83.49019607843137,-2.45,-1.07,-1.2
664.5,-313.5098039215686,-165.50980392156862,-67.49019607843137,2.58,-1.35,2.71
664.55,-298.5098039215686,-67.50980392156863,-160.49019607843138,-5.6,2.7,1.0
664.6,-313.5098039215686,-149.50980392156862,-160.49019607843138,0.06,2.56,0.09
664.65,265.0,-84.50980392156863,-160.49019607843138,-3.43,1.26,1.28
664.7,297.0,-84.50980392156863,-67.49019607843137,-3.01,-0.83,0.58
664.75,-313.5098039215686,-165.50980392156862,-67.49019607843137,-4.03,-0.62,-0.04
664.8,-313.5098039215686,-100.50980392156863,-190.49019607843138,0.9,-0.55,0.26
664.85,313.0,-100.50980392156863,-175.49019607843138,-0.14,-0.93,-0.53
664.9,297.0,-133.50980392156862,-98.49019607843137,-1.26,0.84,2.54
664.95,-313.5098039215686,-84.50980392156863,-98.49019607843137,0.55,3.68,3.87
665.0,-313.5098039215686,-116.50980392156863,-144.49019607843138,-0.77,1.23,4.71
665.05,313.0,-149.50980392156862,-144.49019607843138,0.0,3.43,2.85
665.1,313.0,-100.50980392156863,-160.49019607843138,-1.16,2.45,2.47
665.15,-313.5098039215686,-116.50980392156863,-113.49019607843137,-7.6,3.64,3.62
665.2,281.0,-133.50980392156862,-67.49019607843137,-5.78,1.54,1.91
665.25,313.0,-116.50980392156863,-129.49019607843138,-0.6,0.67,0.54
665.3,-298.5098039215686,-116.50980392156863,-160.49019607843138,2.44,-0.13,1.91
665.35,-313.5098039215686,-100.50980392156863,-144.49019607843138,-0.77,-1.7,1.17
665.4,313.0,-133.50980392156862,-37.490196078431374,-6.83,-0.41,-0.74
665.45,313.0,-149.50980392156862,-98.49019607843137,-1.12,-0.79,1.45
665.5,-282.5098039215686,-67.50980392156863,-113.49019607843137,2.93,0.53,0.72
665.55,-313.5098039215686,-67.50980392156863,-160.49019607843138,0.34,-1.56,-0.74
665.6,-313.5098039215686,-133.50980392156862,-67.49019607843137,2.05,0.11,0.51
665.65,-313.5098039215686,-100.50980392156863,-160.49019607843138,-0.07,-0.79,1.38
665.7,313.0,-116.50980392156863,-98.49019607843137,3.1,-2.68,0.26
665.75,-313.5098039215686,-149.50980392156862,-83.49019607843137,-2.91,-0.97,1.73
665.8,-313.5098039215686,-133.50980392156862,-83.49019607843137,-1.02,1.65,1.38
665.85,-313.5098039215686,-133.50980392156862,-144.49019607843138,-1.89,-0.48,-0.6
665.9,-313.5098039215686,-149.50980392156862,-67.49019607843137,1.67,-2.33,1.73
665.95,-298.5098039215686,-84.50980392156863,-98.49019607843137,4.22,-3.1,2.96
666.0,313.0,-149.50980392156862,-113.49019607843137,-4.2,2.17,0.79
666.05,297.0,-149.50980392156862,-144.49019607843138,3.17,-1.77,-0.46
666.1,313.0,-133.50980392156862,-52.490196078431374,2.19,-1.42,1.84
666.15,-282.5098039215686,-84.50980392156863,-144.49019607843138,-2.7,-0.44,0.54
666.2,-313.5098039215686,-116.50980392156863,-113.49019607843137,0.76,-1.25,-0.18
666.25,-313.5098039215686,-100.50980392156863,-83.49019607843137,0.55,0.88,-0.08
666.3,-313.5098039215686,-100.50980392156863,-175.49019607843138,1.81,0.14,0.33
666.35,-313.5098039215686,-133.50980392156862,-129.49019607843138,-0.81,-0.02,2.22
666.4,313.0,-67.50980392156863,-129.49019607843138,-4.03,0.28,-0.88
666.45,297.0,-198.50980392156862,-67.49019607843137,-3.64,1.02,1.1
666.5,297.0,-100.50980392156863,-67.49019607843137,2.68,0.95,-0.46
666.55,313.0,-84.50980392156863,-129.49019607843138,-1.37,0.32,1.52
666.6,-298.5098039215686,-100.50980392156863,-113.49019607843137,1.88,-2.61,0.82
666.65,-313.5098039215686,-133.50980392156862,-83.49019607843137,0.34,0.07,1.38
666.7,-282.5098039215686,-67.50980392156863,-144.49019607843138,0.9,0.67,0.37
666.75,-313.5098039215686,-100.50980392156863,-83.49019607843137,0.58,0.7,0.33
666.8,-313.5098039215686,-116.50980392156863,-98.49019607843137,-4.06,0.11,0.26
666.85,313.0,-133.50980392156862,-83.49019607843137,-1.09,-0.44,0.65
666.9,-282.5098039215686,-116.50980392156863,-98.49019607843137,3.17,-0.65,0.79
666.95,-313.5098039215686,-51.509803921568626,-144.49019607843138,0.44,-0.44,-0.46
667.0,313.0,-133.50980392156862,-113.49019607843137,-0.81,0.21,2.5
667.05,-313.5098039215686,-84.50980392156863,-113.49019607843137,-3.05,0.42,-1.69
667.1,313.0,-133.50980392156862,-83.49019607843137,2.93,-0.41,0.05
667.15,-313.5098039215686,-133.50980392156862,-129.49019607843138,0.93,-0.16,1.03
667.2,-313.5098039215686,-67.50980392156863,-144.49019607843138,2.4,-2.09,0.75
667.25,313.0,-100.50980392156863,-67.49019607843137,-5.22,1.89,0.58
667.3,313.0,-149.50980392156862,-160.49019607843138,3.91,-1.98,-0.04
667.35,-298.5098039215686,-133.50980392156862,-67.49019607843137,0.69,2.14,3.52
667.4,-298.5098039215686,-18.50980392156863,-144.49019607843138,-2.38,0.14,-0.04
667.45,297.0,-116.50980392156863,-21.49019607843137,-0.32,0.84,-0.22
667.5,313.0,-149.50980392156862,-98.49019607843137,0.3,-0.02,0.65
667.55,313.0,-100.50980392156863,-113.49019607843137,1.39,-1.21,0.93
667.6,313.0,-100.50980392156863,-67.49019607843137,-2.98,1.96,1.98
667.65,-313.5098039215686,-84.50980392156863,-129.49019607843138,-2.87,2.38,-0.25
667.7,297.0,-133.50980392156862,-83.49019607843137,-2.14,0.7,1.42
667.75,-298.5098039215686,-116.50980392156863,-83.49019607843137,0.55,-0.93,-0.22
667.8,313.0,-133.50980392156862,-113.49019607843137,1.25,-0.41,0.54
667.85,-298.5098039215686,-84.50980392156863,-160.49019607843138,0.27,-2.79,0.05
667.9,297.0,-116.50980392156863,-67.49019607843137,3.14,-2.89,0.96
667.95,-313.5098039215686,-84.50980392156863,-98.49019607843137,-3.22,2.0,0.93
668.0,281.0,-84.50980392156863,-129.49019607843138,-2.42,0.53,0.54
668.05,313.0,-149.50980392156862,-67.49019607843137,-4.59,1.47,1.21
668.1,313.0,-133.50980392156862,-98.49019607843137,3.63,-0.97,-1.06
668.15,313.0,-100.50980392156863,-67.49019607843137,-1.02,-0.06,0.89
668.2,313.0,-67.50980392156863,-113.49019607843137,-2.56,1.68,0.68
668.25,297.0,-116.50980392156863,-98.49019607843137,-0.84,-0.23,0.4
668.3,-313.5098039215686,-100.50980392156863,-83.49019607843137,-2.52,0.95,1.24
668.35,313.0,-84.50980392156863,-113.49019607843137,6.92,-2.37,1.0
668.4,313.0,-100.50980392156863,-98.49019607843137,-1.82,-0.48,0.89
668.45,-313.5098039215686,-84.50980392156863,-83.49019607843137,-0.91,1.26,0.3
668.5,-298.5098039215686,-100.50980392156863,-98.49019607843137,-3.96,2.14,0.61
668.55,297.0,-149.50980392156862,-98.49019607843137,-4.76,2.77,-0.25
668.6,297.0,-100.50980392156863,-83.49019607843137,1.14,-0.51,-0.32
668.65,-313.5098039215686,-84.50980392156863,-113.49019607843137,-4.06,0.42,-0.15
668.7,-313.5098039215686,-67.50980392156863,-129.49019607843138,1.32,0.0,1.59
668.75,-282.5098039215686,-51.509803921568626,-144.49019607843138,2.12,0.21,0.82
668.8,-313.5098039215686,-116.50980392156863,-83.49019607843137,-0.28,-0.58,-0.64
668.85,313.0,-100.50980392156863,-52.490196078431374,-1.68,0.11,1.35
668.9,-298.5098039215686,-67.50980392156863,-129.49019607843138,-0.35,0.35,-0.64
668.95,-313.5098039215686,-133.50980392156862,-98.49019607843137,-9.73,0.77,-0.29
669.0,-313.5098039215686,-100.50980392156863,-98.49019607843137,7.76,-2.58,2.15
669.05,-313.5098039215686,-35.509803921568626,-129.49019607843138,-4.34,2.38,0.44
669.1,297.0,-84.50980392156863,-129.49019607843138,4.71,0.25,0.89
669.15,-298.5098039215686,-67.50980392156863,-52.490196078431374,-0.28,0.04,-0.5
669.2,-313.5098039215686,-116.50980392156863,-98.49019607843137,-2.87,-0.41,0.82
669.25,-313.5098039215686,-84.50980392156863,-98.49019607843137,6.39,-2.26,0.47
669.3,-313.5098039215686,-100.50980392156863,-113.49019607843137,-6.2,0.42,-0.36
669.35,313.0,-67.50980392156863,-83.49019607843137,6.99,-3.28,0.05
669.4,-313.5098039215686,-51.509803921568626,-83.49019607843137,-1.86,1.54,1.94
669.45,-298.5098039215686,-100.50980392156863,-129.49019607843138,0.41,-0.02,-1.55
669.5,313.0,-133.50980392156862,-98.49019607843137,-0.35,1.26,0.3
669.55,-298.5098039215686,-67.50980392156863,-113.49019607843137,2.75,-1.6,-0.57
669.6,297.0,-67.50980392156863,-37.490196078431374,2.37,-0.09,0.47
669.65,-282.5098039215686,-67.50980392156863,-67.49019607843137,-0.28,2.66,0.61
669.7,-313.5098039215686,-100.50980392156863,-113.49019607843137,3.45,1.05,-0.43
669.75,313.0,-100.50980392156863,-113.49019607843137,-5.11,1.89,-0.88
669.8,297.0,-100.50980392156863,-37.490196078431374,1.18,1.09,-0.46
669.85,297.0,-84.50980392156863,-36.490196078431374,1.53,3.57,-1.69
669.9,-298.5098039215686,-84.50980392156863,-113.49019607843137,5.31,2.56,-2.84
669.95,-298.5098039215686,-51.509803921568626,-144.49019607843138,8.95,2.84,-2.18
670.0,-313.5098039215686,-67.50980392156863,-144.49019607843138,-2.42,4.83,-2.74
670.05,313.0,-149.50980392156862,-113.49019607843137,-0.14,4.87,0.05
670.1,-298.5098039215686,-133.50980392156862,-113.49019607843137,-1.37,2.7,0.23
670.15,297.0,-165.50980392156862,-36.490196078431374,1.53,5.85,-0.04
670.2,313.0,-67.50980392156863,-113.49019607843137,9.75,7.32,-1.55
670.25,297.0,-84.50980392156863,-83.49019607843137,21.72,8.19,-6.62
670.3,313.0,-133.50980392156862,-144.49019607843138,33.06,11.9,-21.6
670.35,281.0,-198.50980392156862,-221.49019607843138,41.85,14.7,-43.41
670.4,201.0,-165.50980392156862,-283.4901960784314,17.98,-17.59,-31.33
670.45,-234.50980392156862,193.49019607843138,24.50980392156863,-70.25,-15.84,-41.83
670.5,233.0,-116.50980392156863,-129.49019607843138,-64.89,-25.54,-59.79
670.55,74.0,-100.50980392156863,70.50980392156863,-32.38,-48.29,-88.49
670.6,74.0,111.49019607843137,193.50980392156862,-70.88,-42.58,-148.34
670.65,11.0,-100.50980392156863,24.50980392156863,-42.35,-54.1,-176.79
670.7,-68.0,128.49019607843138,209.50980392156862,-44.56,-79.33,-198.39
670.75,-52.0,-198.50980392156862,-249.0,28.51,-116.64,-179.56
670.8,-211.0,-57.01960784313726,-249.0,26.38,-144.71,-117.71
670.85,-306.0,307.4901960784314,-233.0,40.87,-165.26,-61.61
670.9,-259.0,-286.01960784313724,-264.0,27.39,-131.83,-20.45
670.95,-29.49019607843137,242.49019607843138,209.50980392156862,-117.08,-134.7,-29.76
671.0,2.5098039215686274,-198.50980392156862,-203.0,-108.92,-88.71,-18.7
671.05,263.01960784313724,111.49019607843137,132.50980392156862,63.3,-28.9,-46.56
671.1,120.01960784313725,-318.01960784313724,-298.4901960784314,29.63,104.2,69.18
671.15,152.01960784313727,215.0,-147.98039215686273,17.14,140.25,51.33
671.2,65.50980392156863,128.49019607843138,267.01960784313724,29.53,187.36,118.6
671.25,65.50980392156863,-204.01960784313727,301.5098039215686,-322.84,191.38,182.37
671.3,-116.0,30.49019607843137,224.50980392156862,-219.73,72.03,216.04
671.35,-234.50980392156862,117.47058823529412,270.5098039215686,-7.28,-12.73,184.5
671.4,-163.0,-285.01960784313724,104.0,97.88,-63.79,122.66
671.45,58.0,-286.01960784313724,73.0,132.71,-46.12,72.82
671.5,-131.0,-204.01960784313727,-233.0,55.88,1.75,23.64
671.55,304.5098039215686,-198.50980392156862,58.0,-91.14,30.77,-12.15
671.6,304.5098039215686,-165.50980392156862,-3.0,-89.81,-28.09,-101.96
671.65,-236.49019607843138,-263.5098039215686,135.0,304.03,-64.25,-18.31
671.7,-318.47058823529414,68.0,124.52941176470588,183.25,309.5,-31.89
671.75,-299.4901960784314,19.470588235294116,7.470588235294118,68.69,11.62,185.41
671.8,35.490196078431374,-40.01960784313726,-232.9607843137255,40.17,214.9,17.38
671.85,25.019607843137255,166.47058823529412,206.01960784313727,79.61,117.32,-100.25
671.9,58.0,-154.49019607843138,150.0,183.81,48.37,-127.16
671.95,217.0,220.98039215686273,-122.50980392156863,23.09,130.9,-82.71
672.0,304.5098039215686,-220.01960784313727,-67.49019607843137,-204.37,-249.6,295.69
672.05,177.50980392156862,46.490196078431374,224.50980392156862,135.54,53.9,-61.08
672.1,297.0,40.98039215686274,-110.0,-51.98,0.56,-38.44
672.15,-20.0,187.98039215686273,-283.4901960784314,25.01,14.6,-31.68
672.2,-179.0,-84.50980392156863,-52.490196078431374,104.43,-83.04,35.89
672.25,-52.0,144.49019607843138,24.50980392156863,179.05,12.71,27.84
672.3,129.50980392156862,13.490196078431373,286.5098039215686,129.59,-24.03,-27.76
672.35,-20.0,-192.0,-267.4901960784314,165.22,-82.59,-8.44
672.4,-243.0,183.0,209.50980392156862,208.73,-141.18,-0.11
672.45,-227.0,35.0,209.50980392156862,136.63,-186.22,-31.47
672.5,49.509803921568626,-143.0,178.50980392156862,-54.88,-156.19,2.82
672.55,-140.49019607843138,-13.0,255.50980392156862,15.88,-220.45,-35.04
672.6,-220.49019607843138,-149.50980392156862,-160.49019607843138,-90.27,-160.6,-62.38
672.65,-38.98039215686274,248.0,-83.49019607843137,-74.03,-123.47,-66.79
672.7,72.01960784313725,-182.50980392156862,267.01960784313724,-29.23,-72.44,-38.72
672.75,168.01960784313727,-280.5098039215686,-236.49019607843138,22.88,-29.6,42.89
672.8,311.01960784313724,-84.50980392156863,263.52941176470586,45.17,94.01,106.31
672.85,-315.4901960784314,-35.509803921568626,-90.47058823529412,-10.12,179.97,155.87
672.9,104.01960784313725,-182.50980392156862,78.52941176470588,2.02,217.39,163.96
672.95,317.52941176470586,62.490196078431374,-178.98039215686273,-7.91,249.17,161.68
673.0,31.529411764705884,-2.5098039215686274,-298.4901960784314,-22.47,226.42,150.94
673.05,-181.98039215686273,-133.50980392156862,55.509803921568626,-36.05,175.46,100.82
673.1,168.01960784313727,248.0,-279.0,88.61,103.64,68.27
673.15,-29.49019607843137,297.0,-279.0,133.9,89.53,30.29
673.2,49.509803921568626,281.0,-95.0,16.26,65.0,-7.25
673.25,-195.0,166.0,-187.0,-125.86,45.22,-5.26
673.3,42.0,-78.0,-295.0,7.3,-0.06,14.54
673.35,297.0,-247.50980392156862,-129.49019607843138,123.05,2.24,10.24
673.4,138.0,-296.5098039215686,313.01960784313724,62.18,7.21,16.71
673.45,154.0,-45.0,-206.49019607843138,16.89,6.16,10.03
673.5,170.0,-78.0,-206.49019607843138,43.98,-12.06,1.66
673.55,186.0,52.0,-190.49019607843138,29.32,-23.79,-0.57
673.6,106.0,-143.0,9.509803921568627,34.15,-48.01,-27.73
673.65,186.0,-143.0,-113.49019607843137,47.62,-48.92,-44.42
673.7,186.0,-13.0,-283.4901960784314,28.06,-37.75,-67.28
673.75,249.0,-290.0,267.01960784313724,-25.2,0.14,-102.31
673.8,201.0,-209.0,-55.98039215686274,-47.15,38.64,-117.33
673.85,217.0,84.0,-163.98039215686273,-129.78,63.04,-123.77
673.9,265.0,215.0,52.01960784313726,-294.77,95.66,-59.79
673.95,-218.50980392156862,-122.01960784313725,-67.49019607843137,-126.88,2.52,54.62
674.0,-186.50980392156862,-143.52941176470588,286.5098039215686,-104.79,-23.26,108.03
674.05,74.0,-73.01960784313725,224.50980392156862,-99.86,-41.64,112.47
674.1,27.0,-269.01960784313724,86.50980392156863,-60.9,-36.18,75.44
674.15,-36.0,-67.50980392156863,116.50980392156863,-16.38,-26.38,39.92
674.2,-68.0,-231.50980392156862,-83.49019607843137,98.27,-31.73,14.3
674.25,90.0,-214.50980392156862,-206.49019607843138,112.06,1.19,-1.44
674.3,27.0,52.0,-267.4901960784314,148.18,16.56,-14.01
674.35,201.0,-18.50980392156863,-98.49019607843137,125.81,-0.2,-4.17
674.4,-218.50980392156862,-84.50980392156863,178.50980392156862,-75.43,5.43,-2.39
674.45,-123.50980392156863,281.0,209.50980392156862,-167.55,7.32,16.33
674.5,-202.50980392156862,242.49019607843138,39.509803921568626,-27.9,14.46,57.14
674.55,-154.50980392156862,177.49019607843138,-190.49019607843138,-115.43,7.35,22.07
674.6,-186.50980392156862,-214.50980392156862,-21.49019607843137,-133.07,-15.77,10.17
674.65,-91.50980392156863,-18.50980392156863,24.50980392156863,-39.69,-18.92,12.51
674.7,122.0,209.49019607843138,-206.49019607843138,68.87,5.95,-26.43
674.75,122.0,-18.50980392156863,-298.4901960784314,317.37,6.06,-13.83
674.8,281.0,144.49019607843138,-236.49019607843138,-262.18,-12.97,-15.41
674.85,186.0,177.49019607843138,-67.49019607843137,-147.53,58.84,-13.8
674.9,-313.5098039215686,188.50980392156862,-249.0,-291.55,40.01,7.3
674.95,-266.5098039215686,111.49019607843137,239.50980392156862,87.14,-21.48,42.93
675.0,-250.50980392156862,13.490196078431373,252.01960784313727,316.14,-13.85,-27.48
675.05,281.0,232.0,-147.98039215686273,267.35,17.12,-104.59
675.1,201.0,-89.49019607843137,-206.49019607843138,122.94,2.24,-109.0
675.15,-250.50980392156862,-154.49019607843138,-267.4901960784314,215.52,-35.09,-112.46
675.2,297.0,101.0,313.01960784313724,190.42,-60.47,-163.18
675.25,217.0,-274.0,267.01960784313724,106.42,-52.63,-107.84
675.3,122.0,199.0,-298.4901960784314,-182.28,-27.92,-48.38
675.35,122.0,35.0,-298.4901960784314,296.33,28.49,20.11
675.4,217.0,111.49019607843137,-175.49019607843138,-315.14,1.58,65.54
675.45,313.0,-138.01960784313727,-6.490196078431373,-37.17,-13.95,8.8
675.5,313.0,166.0,98.01960784313725,-298.13,-22.6,-98.32
675.55,-218.50980392156862,-13.0,-86.98039215686275,-308.42,-23.09,-105.95
675.6,297.0,-127.0,282.01960784313724,137.01,-6.64,-105.71
675.65,90.0,183.0,-67.49019607843137,-92.37,19.74,44.92
675.7,-139.50980392156862,144.49019607843138,221.01960784313727,-142.59,-4.61,108.17
675.75,-218.50980392156862,62.490196078431374,-52.490196078431374,-224.32,-11.96,74.29
675.8,281.0,19.0,6.019607843137255,-35.07,-36.95,19.72
675.85,90.0,188.50980392156862,-24.980392156862745,-8.89,-4.19,-42.95
675.9,42.0,-89.49019607843137,82.01960784313725,-24.01,-14.23,-76.38
675.95,27.0,25.50980392156863,-6.490196078431373,73.24,-61.34,-84.04
676.0,-20.0,-78.0,286.5098039215686,150.84,-121.96,-47.19
676.05,-84.0,117.0,-203.0,215.06,-168.51,-3.23
676.1,-131.0,-312.5098039215686,162.50980392156862,77.44,-163.54,22.56
676.15,-227.0,19.0,147.50980392156862,-0.81,-179.61,38.76
676.2,272.5098039215686,117.0,-144.49019607843138,-40.43,-190.77,44.47
676.25,2.5098039215686274,-263.5098039215686,-221.49019607843138,24.56,-217.65,54.44
676.3,72.01960784313725,30.49019607843137,159.01960784313727,26.52,-176.28,84.19
676.35,-229.98039215686273,-231.50980392156862,-317.98039215686276,-115.64,-59.56,100.19
676.4,222.52941176470588,-192.0,-147.98039215686273,-227.05,34.27,151.32
676.45,25.019607843137255,74.50980392156863,-198.47058823529412,230.46,240.31,314.39
676.5,104.01960784313725,-192.0,-182.47058823529412,-284.69,207.94,-317.24
676.55,-315.4901960784314,-236.01960784313727,-59.470588235294116,-247.7,179.62,-315.95
676.6,129.50980392156862,177.49019607843138,-252.49019607843138,-19.43,110.78,262.97
676.65,-211.0,-18.50980392156863,-264.0,161.41,82.22,142.96
676.7,-306.0,297.0,273.0,237.32,35.42,11.85
676.75,-68.0,52.0,-215.50980392156862,201.55,-43.39,-112.32
676.8,-163.0,35.0,-123.50980392156863,139.5,-106.11,-202.83
676.85,256.5098039215686,117.0,-261.5098039215686,58.3,-132.46,-204.9
676.9,18.50980392156863,281.0,166.0,80.59,-223.92,-210.22
676.95,2.5098039215686274,-100.50980392156863,43.0,-118.2,-243.41,-186.17
677.0,136.01960784313727,-165.50980392156862,-79.0,-66.99,-305.99,-235.66
677.05,200.01960784313727,95.49019607843137,-264.0,-308.52,-207.82,-278.12
677.1,-165.98039215686273,307.4901960784314,55.509803921568626,192.38,-7.58,99.31
677.15,2.5098039215686274,-78.0,-135.4313725490196,80.21,16.03,16.19
677.2,97.50980392156863,155.98039215686273,-55.98039215686274,-306.91,-21.27,26.58
677.25,-124.49019607843137,307.4901960784314,39.509803921568626,109.43,36.68,-134.65
677.3,-6.980392156862745,-182.50980392156862,-126.0,38.38,80.33,-132.83
677.35,88.01960784313725,199.0,-310.0,11.05,44.91,-106.72
677.4,216.01960784313727,-263.5098039215686,86.50980392156863,-97.58,72.1,-26.36
677.45,9.019607843137255,-247.50980392156862,316.5098039215686,-73.96,49.84,84.58
677.5,-299.4901960784314,-182.50980392156862,270.5098039215686,-19.6,28.14,136.27
677.55,-45.490196078431374,-231.50980392156862,-310.0,18.22,24.43,146.81
677.6,-124.49019607843137,-280.5098039215686,-156.0,-23.56,31.36,109.18
677.65,-188.49019607843138,166.0,-126.0,-140.88,60.48,40.62
677.7,311.01960784313724,-241.0,-79.0,-193.27,51.8,-19.4
677.75,-172.49019607843138,-160.0,-233.0,-24.54,72.21,-69.41
677.8,231.01960784313727,-312.5098039215686,116.50980392156863,73.28,22.3,-168.15
677.85,41.01960784313726,133.0,-175.49019607843138,-151.1,38.85,-197.93
677.9,152.01960784313727,-94.0,-313.4901960784314,-310.49,65.42,-181.94
677.95,231.01960784313727,52.0,-98.49019607843137,-303.73,206.26,-106.3
678.0,168.01960784313727,-2.5098039215686274,-310.0,-93.07,171.33,-77.99
678.05,-13.490196078431373,-236.01960784313727,-110.0,108.59,112.32,-85.97
678.1,-45.490196078431374,128.49019607843138,-233.0,198.61,31.89,-115.19
678.15,65.50980392156863,-149.50980392156862,58.0,121.51,-31.49,-109.1
678.2,-13.490196078431373,-247.50980392156862,-64.0,43.56,-72.79,-72.88
678.25,-172.49019607843138,-100.50980392156863,-141.0,58.23,-101.59,-35.22
678.3,247.01960784313727,30.49019607843137,-249.0,123.47,-82.9,25.57
678.35,152.01960784313727,242.49019607843138,-129.49019607843138,193.75,-88.82,131.97
678.4,263.01960784313724,193.49019607843138,-175.49019607843138,188.36,-5.41,217.82
678.45,285.52941176470586,-263.5098039215686,-67.49019607843137,61.34,110.46,309.77
678.5,-292.98039215686276,-94.0,86.50980392156863,0.76,105.32,293.98
678.55,-22.980392156862745,-62.0,39.509803921568626,-62.79,68.67,229.44
678.6,263.01960784313724,19.0,9.509803921568627,-54.53,59.92,151.6
678.65,-236.49019607843138,35.0,-310.0,-19.53,60.69,56.12
678.7,-45.490196078431374,52.0,-156.0,28.97,61.5,-59.33
678.75,-140.49019607843138,150.0,-95.0,59.91,35.21,-136.26
678.8,-140.49019607843138,232.0,-79.0,71.21,-9.4,-204.41
678.85,295.01960784313724,248.0,-110.0,37.54,-68.06,-223.62
678.9,-299.4901960784314,-296.5098039215686,316.5098039215686,141.39,-148.18,-168.08
678.95,-299.4901960784314,-198.50980392156862,-52.490196078431374,116.68,-119.27,-68.92
679.0,247.01960784313727,-312.5098039215686,-283.4901960784314,17.17,-73.84,-44.32
679.05,-140.49019607843138,117.0,-52.490196078431374,2.54,-42.37,-19.78
679.1,-108.49019607843137,101.0,-175.49019607843138,-44.03,8.02,2.22
679.15,-188.49019607843138,166.0,-236.49019607843138,-19.67,13.13,21.23
679.2,-29.49019607843137,-296.5098039215686,-298.4901960784314,17.49,16.59,32.25
679.25,-77.49019607843137,297.0,-160.49019607843138,0.37,39.06,32.25
679.3,-220.49019607843138,264.0,9.509803921568627,-16.17,28.53,20.11
679.35,-315.4901960784314,281.0,163.50980392156862,-17.89,44.0,34.84
679.4,-22.980392156862745,-247.50980392156862,24.50980392156863,53.29,24.26,84.82
679.45,41.01960784313726,-84.50980392156863,55.509803921568626,61.69,45.4,137.36
679.5,-70.98039215686275,-263.5098039215686,255.50980392156862,8.35,50.26,195.39
679.55,152.01960784313727,199.0,301.5098039215686,10.49,34.3,223.88
679.6,247.01960784313727,215.0,-295.0,-3.29,27.16,202.67
679.65,231.01960784313727,150.0,-249.0,-35.88,16.49,140.54
679.7,-299.4901960784314,101.0,-264.0,-24.22,0.56,72.85
679.75,-93.49019607843137,117.0,-203.0,6.04,-23.44,3.13
679.8,2.5098039215686274,117.0,-218.0,12.59,-41.32,-68.36
679.85,-29.49019607843137,117.0,-280.0,26.9,-65.19,-173.92
679.9,-267.4901960784314,150.0,270.5098039215686,50.11,-76.39,-211.02
679.95,216.01960784313727,264.0,101.50980392156863,99.42,-120.25,-186.56
680.0,-204.49019607843138,313.0,-129.49019607843138,64.95,-118.88,-153.73
680.05,200.01960784313727,101.0,-221.49019607843138,-50.75,-59.31,-114.74
680.1,184.01960784313727,52.0,-252.49019607843138,-48.02,-31.49,-76.31
680.15,-156.49019607843138,281.0,-98.49019607843137,-53.31,-4.92,-38.16
680.2,-124.49019607843137,297.0,-21.49019607843137,-79.56,5.6,-14.92
680.25,-108.49019607843137,313.0,70.50980392156863,-36.37,-15.49,2.12
680.3,-45.490196078431374,-198.50980392156862,55.509803921568626,51.79,-33.69,14.3
680.35,-156.49019607843138,-84.50980392156863,9.509803921568627,124.83,-34.39,27.74
680.4,311.01960784313724,-100.50980392156863,70.50980392156863,162.49,-12.94,41.67
680.45,41.01960784313726,-133.50980392156862,-67.49019607843137,136.77,37.03,99.31
680.5,-38.98039215686274,-165.50980392156862,-36.490196078431374,185.87,60.06,132.32
680.55,104.01960784313725,-198.50980392156862,116.50980392156863,137.19,109.76,121.92
680.6,-133.98039215686273,264.0,301.5098039215686,59.84,132.34,111.67
680.65,-38.98039215686274,248.0,-310.0,10.77,117.85,108.73
680.7,136.01960784313727,215.0,-156.0,-0.04,92.51,104.04
680.75,216.01960784313727,264.0,-64.0,9.47,64.93,103.23
680.8,263.01960784313724,297.0,12.0,31.7,27.62,108.27
680.85,279.01960784313724,313.0,43.0,-1.26,-11.19,112.58
680.9,200.01960784313727,166.0,58.0,-26.46,-67.36,81.95
680.95,216.01960784313727,133.0,-49.0,-16.17,-93.96,36.94
681.0,231.01960784313727,101.0,-218.0,68.34,-110.97,14.86
681.05,-124.49019607843137,264.0,-129.49019607843138,50.21,-93.23,-1.79
681.1,-204.49019607843138,-78.0,-175.49019607843138,-45.19,-46.68,-35.11
681.15,311.01960784313724,-143.0,252.01960784313727,-76.23,-37.05,-48.76
681.2,34.509803921568626,68.0,206.01960784313727,-13.97,-21.79,-47.99
681.25,34.509803921568626,-198.50980392156862,-221.49019607843138,-5.11,-8.46,-32.31
681.3,2.5098039215686274,-100.50980392156863,-52.490196078431374,-2.1,-1.07,17.62
681.35,65.50980392156863,95.49019607843137,-21.49019607843137,-15.68,-4.26,75.97
681.4,177.50980392156862,258.4901960784314,55.509803921568626,-51.35,-13.36,101.17
681.45,161.50980392156862,258.4901960784314,209.50980392156862,-5.15,-46.26,110.83
681.5,-45.490196078431374,-24.019607843137255,270.5098039215686,39.71,-97.25,165.25
681.55,2.5098039215686274,-73.01960784313725,286.5098039215686,62.22,-135.44,186.04
681.6,-93.49019607843137,-302.01960784313724,-156.0,49.09,-128.16,176.24
681.65,-188.49019607843138,111.49019607843137,-156.0,6.36,-120.95,144.57
681.7,-13.490196078431373,-84.50980392156863,-49.0,-1.89,-107.3,116.43
681.75,65.50980392156863,-198.50980392156862,-33.0,-89.25,-83.11,60.08
681.8,81.50980392156863,-214.50980392156862,12.0,-72.52,-81.99,38.83
681.85,193.50980392156862,-2.5098039215686274,58.0,49.02,-39.92,1.56
681.9,193.50980392156862,177.49019607843138,-49.0,-14.7,14.56,-6.48
681.95,224.50980392156862,-318.01960784313724,-95.0,-62.76,45.68,-23.07
682.0,288.5098039215686,258.4901960784314,-172.0,-12.78,68.29,-28.18
682.05,193.50980392156862,73.98039215686275,-64.0,-93.63,76.51,-1.51
682.1,208.50980392156862,209.49019607843138,-233.0,-83.9,43.19,2.22
682.15,304.5098039215686,111.49019607843137,-49.0,-109.31,44.77,2.19
682.2,-306.0,144.49019607843138,-49.0,-131.64,56.42,4.15
682.25,-211.0,-67.50980392156863,-79.0,-79.24,31.85,-1.86
682.3,-179.0,95.49019607843137,289.0,-54.32,13.09,-7.71
682.35,-179.0,193.49019607843138,89.0,-9.63,-3.77,-1.13
682.4,-179.0,-286.01960784313724,119.0,92.7,-24.8,9.12
682.45,-243.0,-269.01960784313724,181.0,106.7,-33.1,17.52
682.5,-306.0,-204.01960784313727,258.0,50.46,-35.34,-20.1
682.55,97.50980392156863,226.49019607843138,320.0,118.88,-25.57,-31.79
682.6,2.5098039215686274,-236.01960784313727,-307.5098039215686,105.27,16.45,-86.32
682.65,-124.49019607843137,62.490196078431374,258.0,23.19,53.59,-65.42
682.7,-124.49019607843137,46.490196078431374,27.0,11.92,66.36,-63.15
682.75,34.509803921568626,-116.50980392156863,43.0,-33.22,83.48,-65.35
682.8,-13.490196078431373,-116.50980392156863,104.0,-108.47,125.62,-54.33
682.85,-61.490196078431374,160.49019607843138,120.0,-66.78,159.08,-50.86
682.9,-156.49019607843138,-236.01960784313727,181.0,-97.83,134.93,-63.36
682.95,-77.49019607843137,242.49019607843138,243.0,-44.77,113.61,-35.74
683.0,97.50980392156863,-138.01960784313727,-64.0,-26.88,80.85,-26.61
683.05,193.50980392156862,111.49019607843137,-279.0,-49.42,79.42,-12.75
683.1,145.50980392156862,128.49019607843138,224.50980392156862,-30.24,87.15,-7.18
683.15,113.50980392156863,13.490196078431373,193.50980392156862,-15.82,94.54,-24.3
683.2,129.50980392156862,-100.50980392156863,-295.0,-46.48,96.22,-28.25
683.25,113.50980392156863,-84.50980392156863,286.5098039215686,-100.59,102.2,-12.01
683.3,97.50980392156863,79.49019607843137,239.50980392156862,-111.76,74.66,-10.12
683.35,256.5098039215686,128.49019607843138,-249.0,-98.04,32.59,-21.04
683.4,224.50980392156862,-253.01960784313727,301.5098039215686,71.14,24.22,18.6
683.45,81.50980392156863,8.980392156862745,116.50980392156863,215.94,9.35,19.48
683.5,177.50980392156862,128.49019607843138,9.509803921568627,63.23,55.37,-44.67
683.55,-188.49019607843138,313.0,301.5098039215686,-34.09,92.51,-73.44
683.6,-172.49019607843138,79.49019607843137,224.50980392156862,36.42,55.86,-53.98
683.65,97.50980392156863,62.490196078431374,178.50980392156862,20.01,28.18,-55.31
683.7,145.50980392156862,-214.50980392156862,316.5098039215686,-3.82,16.77,-75.08
