rel_time,acc_x,acc_y,acc_z,gyro_x,gyro_y,gyro_z
3816.0,145.50980392156862,101.0,313.01960784313724,10.82,15.08,-10.81
3816.05,113.50980392156863,150.0,267.01960784313724,-2.82,10.49,25.33
3816.1,177.50980392156862,52.0,-313.4901960784314,-19.9,8.43,10.53
3816.15,161.50980392156862,68.0,-313.4901960784314,-35.86,14.83,24.74
3816.2,177.50980392156862,150.0,313.01960784313724,-3.66,2.65,-6.65
3816.25,161.50980392156862,-78.0,313.01960784313724,-17.87,3.84,-3.01
3816.3,-250.50980392156862,-72.49019607843137,-283.4901960784314,-27.21,5.28,7.45
3816.35,288.5098039215686,95.49019607843137,-298.4901960784314,-24.1,-6.86,6.01
3816.4,238.52941176470588,-187.01960784313727,-283.4901960784314,-31.48,-20.26,3.39
3816.45,-290.0,-258.0,-267.4901960784314,-21.51,-25.3,-6.26
3816.5,288.5098039215686,68.0,313.01960784313724,-39.43,-30.73,7.17
3816.55,152.01960784313727,-253.01960784313727,-267.4901960784314,-44.33,-30.87,-3.25
3816.6,320.5098039215686,-258.0,236.01960784313727,-25.29,-23.34,-22.22
3816.65,281.0,-258.0,144.01960784313727,-17.03,-12.35,-28.91
3816.7,295.01960784313724,-155.01960784313727,190.01960784313727,-10.03,-10.5,-43.96
3816.75,-108.49019607843137,166.0,298.01960784313724,-15.31,-12.21,-48.09
3816.8,-218.50980392156862,25.50980392156863,313.01960784313724,-36.45,-7.8,-58.38
3816.85,-267.4901960784314,46.490196078431374,282.01960784313724,-20.98,-5.07,-50.54
3816.9,247.01960784313727,-45.0,-298.4901960784314,-20.04,-12.18,-36.89
3816.95,90.0,243.01960784313727,-236.49019607843138,-9.4,-9.2,-33.07
3817.0,184.01960784313727,166.0,-252.49019607843138,-11.25,-10.78,-5.49
3817.05,-70.98039215686275,232.0,-267.4901960784314,-20.88,-11.51,28.27
3817.1,-52.0,-127.0,-175.49019607843138,2.74,-12.53,60.89
3817.15,152.01960784313727,-155.01960784313727,-98.49019607843137,23.0,-9.52,32.72
3817.2,79.52941176470588,302.98039215686276,-221.49019607843138,-5.9,-19.67,45.11
3817.25,-108.49019607843137,-220.01960784313727,-206.49019607843138,12.47,-21.14,37.72
3817.3,-220.49019607843138,171.98039215686273,206.01960784313727,-14.05,-6.44,26.17
3817.35,-6.980392156862745,62.490196078431374,206.01960784313727,-14.44,-4.65,13.29
3817.4,-6.980392156862745,-35.509803921568626,140.52941176470588,-21.37,-5.42,-5.21
3817.45,200.01960784313727,-116.50980392156863,-24.980392156862745,-13.88,-8.43,-22.92
3817.5,136.01960784313727,-318.01960784313724,-206.49019607843138,-19.09,-9.94,-31.46
3817.55,-299.4901960784314,-89.01960784313725,39.509803921568626,-19.93,-8.36,-34.51
3817.6,-93.49019607843137,-89.01960784313725,-237.49019607843138,-10.48,-10.71,-27.44
3817.65,161.50980392156862,-57.01960784313726,-252.49019607843138,13.48,-15.5,-15.47
3817.7,288.5098039215686,-138.01960784313727,116.50980392156863,17.82,-18.09,-6.47
3817.75,193.50980392156862,-155.01960784313727,-36.490196078431374,-8.0,-21.0,-13.75
3817.8,145.50980392156862,57.98039215686274,-98.49019607843137,-14.23,-18.09,-38.18
3817.85,-229.98039215686273,313.47058823529414,101.50980392156863,-47.48,5.87,-112.66
3817.9,152.01960784313727,-67.50980392156863,70.50980392156863,-139.56,24.74,-181.47
3817.95,163.49019607843138,47.01960784313726,252.01960784313727,-219.19,52.81,-232.4
3818.0,-68.0,166.0,-95.0,-318.27,59.07,-222.32
3818.05,295.01960784313724,-187.01960784313727,239.50980392156862,280.07,26.21,-190.19
3818.1,-98.01960784313725,74.50980392156863,9.509803921568627,262.61,27.61,-164.53
3818.15,147.49019607843138,-51.509803921568626,-236.49019607843138,-145.06,-15.47,-96.07
3818.2,-179.0,57.98039215686274,-156.0,-122.48,78.5,23.44
3818.25,83.49019607843137,-290.0,178.50980392156862,4.35,-12.07,26.42
3818.3,-59.509803921568626,-247.50980392156862,-144.49019607843138,-17.17,-39.41,20.64
3818.35,240.50980392156862,-89.01960784313725,-33.0,-35.23,-53.48,22.18
3818.4,-234.50980392156862,-160.0,286.5098039215686,-62.74,-66.22,17.56
3818.45,83.49019607843137,297.0,116.50980392156863,-87.59,-71.4,43.92
3818.5,-243.0,138.98039215686273,43.0,-57.0,-58.2,71.57
3818.55,-59.509803921568626,-29.0,178.50980392156862,-32.81,-57.96,102.4
3818.6,-34.01960784313726,297.0,-21.49019607843137,9.46,-52.22,141.85
3818.65,58.0,-209.52941176470588,239.50980392156862,40.92,-54.28,161.03
3818.7,290.4901960784314,117.0,163.50980392156862,102.14,-55.96,174.54
3818.75,-231.52941176470588,248.0,163.50980392156862,177.42,-20.96,188.08
3818.8,-250.50980392156862,-176.52941176470588,70.50980392156863,119.78,52.39,194.31
3818.85,-82.01960784313725,-312.5098039215686,-221.49019607843138,-144.04,24.11,172.09
3818.9,-50.01960784313726,291.4901960784314,-252.49019607843138,92.93,-85.01,133.38
3818.95,-130.01960784313727,-236.01960784313727,-36.490196078431374,-68.44,22.85,90.01
3819.0,44.98039215686274,-220.01960784313727,-67.49019607843137,167.45,35.87,50.71
3819.05,108.98039215686275,177.49019607843138,39.509803921568626,67.24,40.8,19.66
3819.1,76.98039215686275,160.49019607843138,-236.49019607843138,64.16,22.22,2.02
3819.15,-231.52941176470588,-247.50980392156862,-67.49019607843137,24.54,1.78,24.39
3819.2,-127.03921568627452,-133.50980392156862,-83.49019607843137,12.71,10.95,54.77
3819.25,-32.03921568627451,188.50980392156862,-193.98039215686273,50.83,30.2,83.19
3819.3,283.98039215686276,-307.0,270.5098039215686,54.89,13.43,66.11
3819.35,-245.98039215686273,-138.01960784313727,89.0,37.25,4.82,49.52
3819.4,-279.96078431372547,-122.01960784313725,282.01960784313724,42.43,7.45,17.35
3819.45,-107.50980392156863,24.568627450980394,72.96078431372548,15.16,3.21,1.78
3819.5,41.01960784313726,58.509803921568626,316.5098039215686,21.11,6.05,-9.55
3819.55,11.0,-45.0,58.0,0.18,11.3,1.92
3819.6,4.490196078431373,-225.0,89.0,-8.0,10.95,10.42
3819.65,-120.52941176470588,161.01960784313727,132.50980392156862,4.1,8.64,14.52
3819.7,-270.03921568627453,-246.98039215686273,-6.490196078431373,-2.33,4.79,19.38
3819.75,-311.52941176470586,259.01960784313724,286.5098039215686,30.67,18.23,25.79
3819.8,-139.50980392156862,-312.5098039215686,-49.0,43.62,27.82,11.89
3819.85,-179.0,-35.509803921568626,-246.50980392156862,45.16,14.76,1.57
3819.9,265.0,84.0,181.0,57.02,1.85,16.48
3819.95,-82.01960784313725,-56.490196078431374,-49.0,62.87,5.42,33.59
3820.0,44.98039215686274,-220.01960784313727,-67.49019607843137,69.59,7.41,43.22
3820.05,108.98039215686275,177.49019607843138,39.509803921568626,100.18,24.14,74.12
3820.1,76.98039215686275,160.49019607843138,-236.49019607843138,87.09,34.15,90.61
3820.15,-231.52941176470588,-247.50980392156862,-67.49019607843137,30.46,58.83,134.81
3820.2,-127.03921568627452,-133.50980392156862,-83.49019607843137,42.04,133.55,154.1
3820.25,-32.03921568627451,188.50980392156862,-193.98039215686273,-8.28,154.62,-91.63
3820.3,283.98039215686276,-307.0,270.5098039215686,-109.18,57.25,307.95
3820.35,-245.98039215686273,-138.01960784313727,89.0,20.04,153.15,-18.51
3820.4,-279.96078431372547,-122.01960784313725,282.01960784313724,-190.7,-52.32,257.14
3820.45,-107.50980392156863,24.568627450980394,72.96078431372548,30.21,-32.97,158.26
3820.5,41.01960784313726,58.509803921568626,316.5098039215686,-60.6,-2.17,80.39
3820.55,11.0,-45.0,58.0,35.32,-33.42,54.98
3820.6,4.490196078431373,-225.0,89.0,14.39,6.82,16.34
3820.65,-120.52941176470588,161.01960784313727,132.50980392156862,8.02,19.42,-6.72
3820.7,-270.03921568627453,-246.98039215686273,-6.490196078431373,-34.42,32.68,-57.61
3820.75,-311.52941176470586,259.01960784313724,286.5098039215686,11.28,6.54,-56.1
3820.8,-139.50980392156862,-312.5098039215686,-49.0,-12.06,-17.01,-55.16
3820.85,-179.0,-35.509803921568626,-246.50980392156862,-49.12,-2.2,-44.38
3820.9,265.0,84.0,181.0,-38.24,-22.08,-32.3
3820.95,-82.01960784313725,-56.490196078431374,-49.0,1.23,-54.42,-45.01
3821.0,251.98039215686273,259.01960784313724,301.5098039215686,-21.47,-17.01,-29.96
3821.05,-295.52941176470586,-149.50980392156862,193.50980392156862,-13.91,-18.83,-14.07
3821.1,299.98039215686276,-8.019607843137255,-110.0,6.48,-11.16,3.14
3821.15,171.98039215686273,-106.01960784313725,43.0,14.95,5.21,13.71
3821.2,-311.52941176470586,35.0,-172.0,-25.81,19.1,28.73
3821.25,134.47058823529412,80.01960784313725,224.50980392156862,-148.1,55.71,74.86
3821.3,222.9607843137255,90.50980392156863,-141.0,-218.87,-134.85,74.75
3821.35,174.9607843137255,307.4901960784314,58.0,-103.2,-77.45,101.14
3821.4,-306.0,80.01960784313725,160.05882352941177,-19.51,-56.94,-218.71
3821.45,-139.94117647058823,-72.49019607843137,38.470588235294116,42.39,1.08,-111.16
3821.5,-200.9607843137255,-149.50980392156862,70.50980392156863,-3.13,1.74,-25.65
3821.55,-131.0,-269.01960784313724,-233.0,-5.93,-1.96,-21.98
3821.6,-266.5098039215686,183.0,270.5098039215686,-20.21,-27.47,-30.94
3821.65,-18.019607843137255,264.0,55.509803921568626,-24.73,3.32,-17.29
3821.7,-50.01960784313726,-214.50980392156862,86.50980392156863,-12.09,7.59,-0.07
3821.75,-136.52941176470588,-198.50980392156862,178.50980392156862,28.53,0.52,-0.52
3821.8,274.4901960784314,-149.50980392156862,70.50980392156863,24.33,-8.78,1.95
3821.85,-320.01960784313724,-133.50980392156862,193.50980392156862,-2.36,10.14,0.94
3821.9,-320.01960784313724,30.49019607843137,39.509803921568626,7.57,20.54,-2.41
3821.95,-225.01960784313727,144.49019607843138,70.50980392156863,6.52,4.75,-10.64
3822.0,-193.01960784313727,79.49019607843137,178.50980392156862,18.07,-0.21,10.21
3822.05,274.4901960784314,144.49019607843138,193.50980392156862,33.43,1.71,47.91
3822.1,258.4901960784314,95.49019607843137,132.50980392156862,45.47,14.2,76.05
3822.15,-305.01960784313724,193.49019607843138,209.50980392156862,72.39,-1.85,88.54
3822.2,-289.01960784313724,-100.50980392156863,70.50980392156863,99.2,-5.91,100.79
3822.25,194.49019607843138,3.0,-190.49019607843138,97.9,76.78,100.83
3822.3,178.49019607843138,-89.49019607843137,-267.4901960784314,205.56,128.3,-113.82
3822.35,147.49019607843138,319.5098039215686,-283.4901960784314,-186.36,20.22,-286.89
3822.4,-11.509803921568627,-35.509803921568626,-52.490196078431374,-238.12,-36.4,-227.15
3822.45,313.0,177.49019607843138,39.509803921568626,-214.95,130.68,238.66
3822.5,186.0,-155.01960784313727,169.49019607843138,111.59,-80.81,128.13
3822.55,-204.05882352941177,275.4901960784314,27.0,-6.56,25.3,19.56
3822.6,-313.5098039215686,210.01960784313727,-249.0,-107.5,19.49,23.48
3822.65,245.47058823529412,-225.0,-126.0,-54.48,43.71,26.8
3822.7,-247.52941176470588,232.0,316.5098039215686,46.07,3.67,25.93
3822.75,108.98039215686275,-258.0,-79.0,-41.11,45.07,-32.97
3822.8,-225.01960784313727,-274.0,-79.0,-22.94,39.96,-9.94
3822.85,-209.01960784313727,35.0,120.0,-53.32,17.07,-14.42
3822.9,-225.01960784313727,-192.0,289.0,-17.45,-27.02,-12.04
3822.95,-136.52941176470588,-78.0,166.0,-22.24,-28.52,-12.04
3823.0,-50.01960784313726,-160.0,-33.0,-21.61,-17.43,-24.53
3823.05,-66.01960784313725,-62.0,-64.0,-45.03,-36.96,-27.3
3823.1,12.980392156862745,-78.0,12.0,-14.33,-62.51,-42.45
3823.15,-50.01960784313726,-62.0,-18.0,2.39,-58.83,-60.02
3823.2,28.980392156862745,52.0,-49.0,-15.24,-29.4,-52.85
3823.25,155.98039215686273,-296.5098039215686,-279.0,-65.4,-13.58,-5.56
3823.3,76.98039215686275,-116.50980392156863,-64.0,-59.48,-24.18,16.69
3823.35,28.980392156862745,-182.50980392156862,-64.0,-101.45,8.6,14.94
3823.4,219.98039215686273,264.0,-64.0,-317.78,41.61,-32.37
3823.45,-111.03921568627452,-307.0,58.0,-98.92,25.02,-130.41
3823.5,-260.54901960784315,297.47058823529414,60.450980392156865,220.96,-117.04,-70.87
3823.55,140.98039215686273,75.3921568627451,104.0,-23.78,-11.83,27.92
3823.6,158.52941176470588,319.5098039215686,-33.0,-2.36,-10.88,0.34
3823.65,105.56862745098039,291.4901960784314,298.01960784313724,7.67,-18.58,-5.07
3823.7,145.50980392156862,-247.50980392156862,101.50980392156863,18.63,-44.06,-23.1
3823.75,-179.0,166.0,-95.0,77.25,-17.46,-26.28
3823.8,-273.01960784313724,-149.50980392156862,39.509803921568626,96.64,21.52,-3.18
3823.85,155.98039215686273,-51.509803921568626,224.50980392156862,-107.78,10.88,12.59
3823.9,283.98039215686276,79.49019607843137,273.0,-20.7,-23.03,-3.57
3823.95,-18.019607843137255,-165.50980392156862,-6.490196078431373,22.41,-2.13,16.79
3824.0,-209.01960784313727,215.0,55.509803921568626,4.87,5.24,28.13
3824.05,-273.01960784313724,-78.0,147.50980392156862,15.76,2.16,9.37
3824.1,-161.01960784313727,-94.0,-283.4901960784314,21.6,1.36,-6.33
3824.15,-257.01960784313724,-45.0,-67.49019607843137,18.7,7.62,21.31
3824.2,306.4901960784314,52.0,-129.49019607843138,20.83,21.97,51.69
3824.25,-305.01960784313724,199.0,-113.49019607843137,26.78,16.55,69.71
3824.3,-273.01960784313724,199.0,-36.490196078431374,84.08,-17.18,94.88
3824.35,-257.01960784313724,35.0,163.50980392156862,110.26,0.48,85.78
3824.4,258.4901960784314,166.0,-298.4901960784314,16.04,15.95,110.91
3824.45,178.49019607843138,-13.0,-221.49019607843138,97.03,87.74,61.24
3824.5,-202.50980392156862,-62.0,21.019607843137255,144.87,82.94,-194.6
3824.55,-306.0,292.01960784313724,-252.49019607843138,54.19,81.33,-306.91
3824.6,240.62745098039215,260.4313725490196,200.49019607843138,84.88,193.75,49.48
3824.65,-29.058823529411764,-127.0,221.01960784313727,51.91,-6.93,162.6
3824.7,265.0,-51.509803921568626,-319.01960784313724,-34.18,5.42,27.47
3824.75,44.98039215686274,95.49019607843137,320.0,39.94,-28.35,17.53
3824.8,-209.01960784313727,264.0,227.0,-18.92,-19.77,16.16
3824.85,306.4901960784314,-263.5098039215686,12.0,25.84,-33.04,5.87
3824.9,210.49019607843138,-247.50980392156862,-18.0,7.25,-32.06,-8.54
3824.95,147.49019607843138,-100.50980392156863,-79.0,-4.6,-10.53,-4.79
3825.0,290.4901960784314,-198.50980392156862,286.5098039215686,-47.76,0.13,0.24
3825.05,-320.01960784313724,-182.50980392156862,-218.0,-53.53,-14.35,-15.75
3825.1,-209.01960784313727,-67.50980392156863,-203.0,10.72,-30.94,-13.44
3825.15,-209.01960784313727,144.49019607843138,-156.0,-43.14,-19.32,8.71
3825.2,-130.01960784313727,242.49019607843138,-310.0,-46.57,-5.56,45.81
3825.25,60.98039215686274,144.49019607843138,255.50980392156862,-41.81,5.21,55.47
3825.3,12.980392156862745,-318.01960784313724,86.50980392156863,-43.73,7.87,48.33
3825.35,44.98039215686274,242.49019607843138,286.5098039215686,9.21,23.41,42.97
3825.4,44.98039215686274,258.4901960784314,209.50980392156862,4.49,34.75,47.84
3825.45,-82.01960784313725,275.4901960784314,-141.0,-170.26,40.17,-0.17
3825.5,-98.01960784313725,242.49019607843138,-126.0,-64.87,-260.08,-71.92
3825.55,60.98039215686274,-165.50980392156862,-131.52941176470588,-81.25,-18.69,63.31
3825.6,-199.52941176470588,-280.5098039215686,9.549019607843137,127.62,-75.63,-245.98
3825.65,-101.54901960784314,-40.490196078431374,-246.50980392156862,-23.5,-18.76,-100.62
3825.7,79.96078431372548,41.509803921568626,183.0392156862745,-14.86,2.2,-56.7
3825.75,-52.0,275.4901960784314,39.509803921568626,-8.98,-1.01,-58.38
3825.8,-241.45098039215685,128.49019607843138,-129.49019607843138,-3.41,2.69,-64.22
3825.85,181.0392156862745,-285.4901960784314,9.509803921568627,21.18,11.96,-57.26
3825.9,-204.49019607843138,58.509803921568626,55.509803921568626,-4.25,26.03,-23.31
3825.95,35.490196078431374,-99.98039215686275,101.50980392156863,-6.88,19.21,-17.04
3826.0,187.98039215686273,-127.0,39.509803921568626,7.67,11.68,-13.72
3826.05,140.98039215686273,3.0,224.50980392156862,-2.5,12.84,-9.03
3826.1,124.98039215686275,-45.0,255.50980392156862,3.51,3.0,1.46
3826.15,-18.019607843137255,-143.0,163.50980392156862,9.98,5.77,14.45
3826.2,258.4901960784314,-209.0,-129.49019607843138,6.66,3.11,5.94
3826.25,147.49019607843138,52.0,86.50980392156863,-10.62,7.45,-1.54
3826.3,-225.01960784313727,52.0,132.50980392156862,2.7,-4.41,4.26
3826.35,-161.01960784313727,117.0,24.50980392156863,21.64,6.89,30.34
3826.4,-193.01960784313727,-214.50980392156862,-144.49019607843138,32.94,14.34,65.62
3826.45,-320.01960784313724,297.0,86.50980392156863,37.6,17.14,96.84
3826.5,-320.01960784313724,-231.50980392156862,116.50980392156863,51.32,11.37,105.87
3826.55,-209.01960784313727,183.0,9.509803921568627,131.33,12.45,116.33
3826.6,258.4901960784314,-78.0,282.01960784313724,68.01,42.45,103.56
3826.65,163.49019607843138,-62.0,-264.0,69.48,147.17,-143.39
3826.7,313.0,-111.0,-236.49019607843138,-259.61,32.79,-290.22
3826.75,49.509803921568626,-258.47058823529414,70.50980392156863,245.02,67.58,-85.29
3826.8,-268.6078431372549,220.5686274509804,24.50980392156863,-301.02,45.46,-324.16
3826.85,-183.52941176470588,221.50980392156862,253.47058823529412,163.04,14.9,125.85
3826.9,-88.52941176470588,73.98039215686275,255.50980392156862,-105.4,37.23,-9.62
3826.95,-241.01960784313727,-18.50980392156863,120.0,21.99,-11.93,24.91
3827.0,131.49019607843138,-198.50980392156862,163.50980392156862,8.23,4.89,-5.84
3827.05,99.49019607843137,193.49019607843138,24.50980392156863,2.0,1.01,-3.08
3827.1,194.49019607843138,193.49019607843138,132.50980392156862,39.38,-23.34,-15.29
3827.15,210.49019607843138,242.49019607843138,286.5098039215686,8.37,-16.8,-52.18
3827.2,178.49019607843138,111.49019607843137,270.5098039215686,-27.28,-2.97,-46.51
3827.25,115.49019607843137,307.4901960784314,193.50980392156862,-32.08,-20.16,-26.39
3827.3,163.49019607843138,307.4901960784314,255.50980392156862,-41.7,-33.14,-7.45
3827.35,274.4901960784314,258.4901960784314,316.5098039215686,0.22,-33.7,19.91
3827.4,-241.01960784313727,-220.01960784313727,239.50980392156862,-26.09,-20.02,29.99
3827.45,-225.01960784313727,-106.01960784313725,163.50980392156862,-16.96,2.9,50.67
3827.5,-209.01960784313727,106.98039215686275,86.50980392156863,-39.71,15.88,56.76
3827.55,-130.01960784313727,40.98039215686274,116.50980392156863,-55.67,26.35,49.55
3827.6,-18.019607843137255,-204.01960784313727,239.50980392156862,-28.23,58.02,4.19
3827.65,-18.019607843137255,-204.01960784313727,255.50980392156862,-288.31,-113.47,42.48
3827.7,-50.01960784313726,-253.01960784313727,239.50980392156862,-179.01,-47.67,288.67
3827.75,-66.01960784313725,-318.01960784313724,193.50980392156862,-15.21,-85.26,-224.77
3827.8,-263.52941176470586,-182.50980392156862,-280.0,-160.84,-31.11,-208.18
3827.85,-16.03921568627451,-176.0,-98.49019607843137,-78.17,-17.08,-121.06
3827.9,-9.529411764705882,156.50980392156862,-193.98039215686273,-45.83,-6.19,-90.12
3827.95,242.49019607843138,117.0,24.50980392156863,-51.57,13.12,-71.61
3828.0,-257.45098039215685,-78.0,320.0,-27.67,-3.25,-52.22
3828.05,181.0392156862745,117.47058823529412,7.470588235294118,-10.73,-3.5,-29.85
3828.1,-70.98039215686275,178.01960784313727,-138.50980392156862,-17.73,-8.15,-16.2
3828.15,-139.50980392156862,199.52941176470588,-110.0,5.08,-6.12,-2.97
3828.2,124.98039215686275,172.50980392156862,89.0,-12.55,-1.47,3.81
3828.25,44.98039215686274,199.0,-3.0,6.13,-1.57,14.13
3828.3,-3.019607843137255,84.0,-95.0,17.37,-0.7,23.34
3828.35,-130.01960784313727,84.0,-64.0,1.44,6.64,15.92
3828.4,-50.01960784313726,52.0,-79.0,0.85,6.15,-1.68
3828.45,-209.01960784313727,35.0,-141.0,-8.24,3.84,-5.67
3828.5,306.4901960784314,68.0,-64.0,8.55,2.79,11.23
3828.55,-320.01960784313724,133.0,-187.0,28.92,6.36,42.76
3828.6,306.4901960784314,232.0,-249.0,47.61,13.08,99.22
3828.65,290.4901960784314,183.0,316.5098039215686,57.65,0.31,131.56
3828.7,274.4901960784314,313.0,224.50980392156862,86.0,0.03,150.28
3828.75,290.4901960784314,313.0,-295.0,105.36,-26.6,138.49
3828.8,194.49019607843138,313.0,-218.0,191.74,0.97,127.78
3828.85,35.490196078431374,-198.50980392156862,-187.0,165.24,101.95,4.12
3828.9,201.0,-280.5098039215686,196.0,290.44,152.63,216.46
3828.95,281.0,-62.0,30.49019607843137,237.9,100.09,-227.71
3829.0,2.9411764705882355,-78.52941176470588,-138.88235294117646,-54.97,-51.24,-293.85
3829.05,-242.5686274509804,226.49019607843138,307.4901960784314,-20.11,-0.91,171.88
3829.1,-123.50980392156863,-302.01960784313724,32.529411764705884,-4.5,25.3,-29.57
3829.15,155.98039215686273,-18.50980392156863,316.5098039215686,13.62,-17.67,-8.08
3829.2,226.49019607843138,-165.50980392156862,55.509803921568626,11.52,-16.1,-18.79
3829.25,194.49019607843138,111.49019607843137,-52.490196078431374,16.42,-21.63,-30.76
3829.3,258.4901960784314,-2.5098039215686274,147.50980392156862,-5.09,-27.3,-38.81
3829.35,290.4901960784314,-51.509803921568626,286.5098039215686,-3.73,-33.07,-33.11
3829.4,306.4901960784314,13.490196078431373,255.50980392156862,5.4,-37.31,-32.2
3829.45,-241.01960784313727,144.49019607843138,239.50980392156862,12.01,-41.33,-30.8
3829.5,-273.01960784313724,193.49019607843138,239.50980392156862,2.84,-51.59,-23.52
3829.55,-146.01960784313727,160.49019607843138,86.50980392156863,-13.46,-46.16,-15.43
3829.6,-66.01960784313725,-269.01960784313724,70.50980392156863,-6.91,-27.3,7.03
3829.65,12.980392156862745,-269.01960784313724,-67.49019607843137,19.19,-14.91,20.33
3829.7,-3.019607843137255,-236.01960784313727,9.509803921568627,33.75,-11.06,31.18
3829.75,108.98039215686275,160.49019607843138,286.5098039215686,35.22,-3.43,54.24
3829.8,60.98039215686274,160.49019607843138,286.5098039215686,29.65,17.88,81.75
3829.85,-98.01960784313725,226.49019607843138,132.50980392156862,66.79,-20.37,83.47
3829.9,-114.01960784313725,62.490196078431374,178.50980392156862,93.18,-123.17,-7.07
3829.95,203.98039215686273,-231.50980392156862,-6.490196078431373,129.09,44.97,-38.67
3830.0,-63.03921568627451,-45.0,-113.49019607843137,81.42,-28.35,-208.11
3830.05,-165.54901960784315,47.01960784313726,-209.98039215686273,-287.19,63.73,-80.95
3830.1,67.49019607843137,209.49019607843138,104.0,-323.75,32.16,-48.02
3830.15,229.0392156862745,297.0,-33.0,-71.28,19.84,-52.85
3830.2,248.5686274509804,79.96078431372548,212.0,4.03,-7.49,-35.59
3830.25,-283.4901960784314,-258.0,258.0,-24.69,-4.86,-27.09
3830.3,297.0,-17.980392156862745,-141.0,-70.51,18.3,-21.77
3830.35,-305.01960784313724,-78.0,289.0,-60.64,13.75,-12.63
3830.4,-34.01960784313726,297.0,-156.0,4.21,7.34,3.67
3830.45,92.98039215686275,264.0,273.0,27.97,6.5,13.29
3830.5,-114.01960784313725,281.0,12.0,30.91,3.14,7.41
3830.55,242.49019607843138,-312.5098039215686,27.0,-13.91,6.01,6.85
3830.6,-289.01960784313724,150.0,89.0,-21.37,3.7,10.18
3830.65,-320.01960784313724,52.0,150.0,-17.27,13.82,29.67
3830.7,-289.01960784313724,84.0,43.0,1.51,23.02,53.09
3830.75,-209.01960784313727,166.0,-79.0,-31.69,7.13,65.93
3830.8,-225.01960784313727,232.0,-187.0,-59.2,-2.59,88.96
3830.85,-305.01960784313724,199.0,-264.0,-60.29,-10.01,95.47
3830.9,-320.01960784313724,-149.50980392156862,224.50980392156862,-47.69,-5.04,97.12
3830.95,226.49019607843138,-296.5098039215686,-279.0,-98.61,41.57,83.29
3831.0,194.49019607843138,117.0,-172.0,-152.09,45.63,-5.6
3831.05,-91.50980392156863,166.0,-141.0,-142.5,-187.04,-258.09
3831.1,122.0,-62.0,-107.50980392156863,16.84,44.16,-171.36
3831.15,-72.96078431372548,306.6078431372549,132.88235294117646,44.98,-89.11,-302.15
3831.2,246.90196078431373,177.49019607843138,-220.0392156862745,-60.81,-11.13,114.83
3831.25,-234.50980392156862,199.0,-178.98039215686273,-75.83,-0.94,-57.08
3831.3,314.98039215686276,46.490196078431374,39.509803921568626,-32.67,21.73,6.99
3831.35,-82.01960784313725,-35.509803921568626,-267.4901960784314,-9.43,11.23,-8.4
3831.4,-177.01960784313727,177.49019607843138,86.50980392156863,9.63,-5.56,1.53
3831.45,-320.01960784313724,62.490196078431374,-175.49019607843138,14.71,-14.28,-35.0
3831.5,-241.01960784313727,79.49019607843137,193.50980392156862,-5.51,-21.91,-38.32
3831.55,306.4901960784314,-67.50980392156863,316.5098039215686,-8.91,-16.73,-14.77
3831.6,147.49019607843138,-2.5098039215686274,116.50980392156863,0.6,-0.07,-19.0
3831.65,194.49019607843138,62.490196078431374,147.50980392156862,-1.17,-4.09,-19.46
3831.7,210.49019607843138,95.49019607843137,116.50980392156863,-7.89,1.71,-6.44
3831.75,306.4901960784314,226.49019607843138,55.509803921568626,-20.14,4.02,11.86
3831.8,-130.01960784313727,242.49019607843138,-113.49019607843137,-18.11,5.63,36.04
3831.85,-50.01960784313726,-285.01960784313724,-237.49019607843138,-7.23,-2.13,51.97
3831.9,-3.019607843137255,-318.01960784313724,-21.49019607843137,2.14,-0.03,63.06
3831.95,-114.01960784313725,258.4901960784314,39.509803921568626,7.04,13.12,59.32
3832.0,194.49019607843138,117.0,-172.0,-152.09,45.63,54.1
3832.05,-91.50980392156863,166.0,-141.0,-142.5,-187.04,16.16
3832.1,122.0,-62.0,-107.50980392156863,16.84,44.16,-32.65
3832.15,-72.96078431372548,306.6078431372549,132.88235294117646,44.98,-89.11,-169.89
3832.2,246.90196078431373,177.49019607843138,-220.0392156862745,-60.81,-11.13,-105.07
3832.25,-234.50980392156862,199.0,-178.98039215686273,-75.83,-0.94,-86.83
3832.3,314.98039215686276,46.490196078431374,39.509803921568626,-32.67,21.73,-53.83
3832.35,-82.01960784313725,-35.509803921568626,-267.4901960784314,-9.43,11.23,-22.57
3832.4,-177.01960784313727,177.49019607843138,86.50980392156863,9.63,-5.56,-15.01
3832.45,-320.01960784313724,62.490196078431374,-175.49019607843138,14.71,-14.28,-5.7
3832.5,-241.01960784313727,79.49019607843137,193.50980392156862,-5.51,-21.91,-6.05
3832.55,306.4901960784314,-67.50980392156863,316.5098039215686,-8.91,-16.73,0.38
3832.6,147.49019607843138,-2.5098039215686274,116.50980392156863,0.6,-0.07,7.45
3832.65,194.49019607843138,62.490196078431374,147.50980392156862,-1.17,-4.09,14.83
3832.7,210.49019607843138,95.49019607843137,116.50980392156863,-7.89,1.71,12.0
3832.75,306.4901960784314,226.49019607843138,55.509803921568626,-20.14,4.02,-7.63
3832.8,-130.01960784313727,242.49019607843138,-113.49019607843137,-18.11,5.63,-8.15
3832.85,-50.01960784313726,-285.01960784313724,-237.49019607843138,-7.23,-2.13,6.19
3832.9,-3.019607843137255,-318.01960784313724,-21.49019607843137,2.14,-0.03,22.71
3832.95,-114.01960784313725,258.4901960784314,39.509803921568626,7.04,13.12,42.38
3833.0,-225.01960784313727,258.4901960784314,70.50980392156863,24.33,12.14,67.12
3833.05,-289.01960784313724,-318.01960784313724,-144.49019607843138,48.38,3.07,106.08
3833.1,-66.01960784313725,160.49019607843138,55.509803921568626,121.28,4.54,106.25
3833.15,219.98039215686273,-84.50980392156863,70.50980392156863,110.12,-10.43,108.98
3833.2,213.47058823529412,264.0,-52.490196078431374,111.1,67.09,68.8
3833.25,-79.03921568627452,-301.4901960784314,47.529411764705884,266.78,118.92,-204.82
3833.3,155.98039215686273,166.0,-283.4901960784314,-163.54,72.3,284.4
3833.35,245.0392156862745,-187.01960784313727,-15.509803921568627,155.86,205.86,113.78
3833.4,105.56862745098039,307.4901960784314,-117.98039215686275,121.39,-4.02,217.27
3833.45,-290.0,-263.98039215686276,-215.50980392156862,-60.29,55.22,105.9
3833.5,-259.0,-143.47058823529412,-92.50980392156863,-0.96,0.9,14.69
3833.55,-320.01960784313724,-121.49019607843137,-261.5098039215686,-0.44,-42.66,16.27
3833.6,299.98039215686276,-209.0,304.0,77.53,-52.39,37.97
3833.65,155.98039215686273,264.0,-33.0,10.61,-17.67,42.06
3833.7,60.98039215686274,313.0,270.5098039215686,19.78,12.21,59.95
3833.75,92.98039215686275,-214.50980392156862,24.50980392156863,0.88,37.37,63.48
3833.8,-193.01960784313727,232.0,147.50980392156862,-60.74,31.46,57.04
3833.85,-289.01960784313724,-127.0,-264.0,-3.27,4.26,43.53
3833.9,-225.01960784313727,270.5098039215686,-279.0,-9.43,1.6,31.95
3833.95,-130.01960784313727,74.50980392156863,-203.0,-47.37,27.61,15.74
3834.0,-225.01960784313727,107.50980392156863,-249.0,-89.76,52.95,-3.99
3834.05,258.4901960784314,123.50980392156863,-79.0,-118.21,48.64,-1.43
3834.1,4.490196078431373,319.5098039215686,150.0,-306.9,-37.03,20.47
3834.15,170.0,-225.0,-76.50980392156863,320.67,83.68,300.64
3834.2,-195.0,205.50980392156862,-284.52941176470586,-204.94,-84.31,-169.89
3834.25,-195.0,6.627450980392157,294.5686274509804,237.06,-206.11,21.48
3834.3,-267.05882352941177,-312.5098039215686,89.0,-187.16,-76.68,-183.47
3834.35,319.078431372549,101.05882352941177,298.01960784313724,-116.04,49.55,-221.55
3834.4,-9.529411764705882,-50.98039215686274,159.01960784313727,5.47,19.07,-222.67
3834.45,-199.52941176470588,-149.50980392156862,282.01960784313724,-86.78,31.63,-210.0
3834.5,258.4901960784314,232.0,-221.49019607843138,-83.28,71.71,-158.27
3834.55,-289.01960784313724,183.0,193.50980392156862,-76.98,84.17,-118.37
3834.6,194.49019607843138,248.0,-6.490196078431373,-118.74,77.62,-79.59
3834.65,-75.50980392156863,-165.50980392156862,-67.49019607843137,-38.34,59.67,-46.48
3834.7,-154.50980392156862,62.490196078431374,-264.0,-23.57,35.13,-30.8
3834.75,313.0,-116.50980392156863,-79.0,6.55,28.55,-13.89
3834.8,297.0,177.49019607843138,-264.0,8.3,7.9,-8.33
3834.85,-186.50980392156862,177.49019607843138,-233.0,21.32,4.68,-10.22
3834.9,-170.50980392156862,95.49019607843137,-310.0,1.55,11.44,-3.6
3834.95,-170.50980392156862,128.49019607843138,-295.0,-11.25,20.68,0.97
3835.0,-186.50980392156862,209.49019607843138,286.5098039215686,-29.28,18.58,0.24
3835.05,4.490196078431373,258.4901960784314,316.5098039215686,-61.9,15.92,-5.84
3835.1,-43.509803921568626,275.4901960784314,-172.0,-32.08,6.92,1.39
3835.15,-154.50980392156862,193.49019607843138,-187.0,-41.49,0.97,-1.89
3835.2,-202.50980392156862,-285.01960784313724,-279.0,-14.93,-0.52,-4.69
3835.25,-202.50980392156862,-220.01960784313727,-79.0,-6.0,-2.27,6.29
3835.3,83.49019607843137,-171.01960784313727,-126.0,22.79,11.72,19.87
3835.35,178.49019607843138,220.98039215686273,286.5098039215686,47.29,-3.18,21.03
3835.4,-257.01960784313724,122.98039215686275,-203.0,35.88,-14.56,24.21
3835.45,306.4901960784314,171.98039215686273,-172.0,28.81,-12.91,34.29
3835.5,226.49019607843138,57.98039215686274,-172.0,52.4,14.66,65.2
3835.55,163.49019607843138,89.98039215686275,255.50980392156862,71.55,12.66,98.55
3835.6,258.4901960784314,-220.01960784313727,-249.0,85.44,4.16,124.07
3835.65,258.4901960784314,-171.01960784313727,255.50980392156862,99.23,0.83,129.21
3835.7,-225.01960784313727,-269.01960784313724,316.5098039215686,126.39,2.58,150.81
3835.75,140.98039215686273,-286.01960784313724,116.50980392156863,178.79,59.91,206.88
3835.8,-143.0392156862745,-263.5098039215686,190.01960784313727,188.8,135.58,8.74
3835.85,308.47058823529414,-154.49019607843138,-255.98039215686273,-9.47,229.28,-262.39
3835.9,217.0,232.0,116.50980392156863,-120.62,-59.6,-286.12
3835.95,22.03921568627451,-149.50980392156862,196.0,57.16,-21.21,-277.12
3836.0,-88.96078431372548,215.47058823529412,264.98039215686276,-32.46,-43.5,271.07
3836.05,184.01960784313727,-263.5098039215686,-76.50980392156863,-84.19,-14.84,120.71
3836.1,-20.0,-66.98039215686275,-141.0,-13.77,-39.69,73.04
3836.15,-295.52941176470586,161.01960784313727,27.0,-33.55,-7.0,-8.4
3836.2,235.98039215686273,308.01960784313724,270.5098039215686,-5.9,14.9,-53.76
3836.25,60.98039215686274,221.50980392156862,116.50980392156863,-0.19,20.12,-62.61
3836.3,290.4901960784314,-176.0,-187.0,-9.57,7.2,-39.34
3836.35,67.49019607843137,-192.0,-18.0,-0.02,-26.53,-34.09
3836.4,-209.01960784313727,-127.0,-3.0,-16.85,-29.22,-56.94
3836.45,258.4901960784314,-209.0,-18.0,-33.69,-32.41,-53.44
3836.5,258.4901960784314,-29.0,-18.0,-19.2,-21.8,-44.13
3836.55,258.4901960784314,35.0,316.5098039215686,-21.61,-13.44,-30.76
3836.6,-225.01960784313727,215.0,224.50980392156862,-34.39,-10.15,-15.57
3836.65,-241.01960784313727,215.0,178.50980392156862,-37.82,-15.12,-2.83
3836.7,-273.01960784313724,84.0,-249.0,-82.16,-3.01,-12.56
3836.75,194.49019607843138,-62.0,-79.0,-145.69,19.0,-26.35
3836.8,35.490196078431374,-160.0,-3.0,-199.06,16.06,3.84
3836.85,249.0,199.0,58.0,-174.45,-204.89,120.74
3836.9,-139.50980392156862,302.98039215686276,-319.01960784313724,-1.42,138.21,-24.43
3836.95,301.96078431372547,254.0392156862745,-138.88235294117646,-6.56,-6.19,-65.1
3837.0,-88.52941176470588,-2.5098039215686274,200.49019607843138,30.42,-11.44,-66.88
3837.05,-70.98039215686275,-149.50980392156862,301.5098039215686,7.11,-46.83,-64.4
3837.1,293.5882352941176,35.0,12.0,-2.82,-2.45,-61.81
3837.15,-100.0,-263.5098039215686,147.50980392156862,-16.82,-6.54,-28.77
3837.2,49.509803921568626,-2.5098039215686274,-21.49019607843137,3.75,3.88,-21.59
3837.25,131.49019607843138,-18.50980392156863,-52.490196078431374,-6.18,7.9,-13.3
3837.3,219.98039215686273,-67.50980392156863,147.50980392156862,0.5,3.32,-7.8
3837.35,-98.01960784313725,-2.5098039215686274,101.50980392156863,9.98,4.93,-4.93
3837.4,44.98039215686274,-100.50980392156863,132.50980392156862,-7.44,7.38,8.64
3837.45,-225.01960784313727,46.490196078431374,193.50980392156862,0.25,9.55,7.8
3837.5,-320.01960784313724,95.49019607843137,-52.490196078431374,7.04,-3.71,-3.36
3837.55,-305.01960784313724,128.49019607843138,9.509803921568627,-3.76,-7.38,3.18
3837.6,-305.01960784313724,177.49019607843138,116.50980392156863,1.79,9.3,22.29
3837.65,306.4901960784314,177.49019607843138,-6.490196078431373,10.58,14.73,41.08
3837.7,-305.01960784313724,79.49019607843137,24.50980392156863,27.41,0.87,58.44
3837.75,-241.01960784313727,13.490196078431373,178.50980392156862,17.44,1.5,90.54
3837.8,242.49019607843138,144.49019607843138,255.50980392156862,78.06,-9.31,89.45
3837.85,306.4901960784314,-182.50980392156862,24.50980392156863,82.19,-4.9,86.27
3837.9,226.49019607843138,-127.0,-237.49019607843138,7.04,79.55,97.47
3837.95,226.49019607843138,-225.0,-86.98039215686275,14.85,154.83,-148.71
3838.0,83.49019607843137,297.0,-221.49019607843138,-129.8,148.85,305.96
3838.05,-68.0,-302.01960784313724,184.49019607843138,222.82,163.93,169.88
3838.1,240.62745098039215,-258.52941176470586,91.03921568627452,116.63,-38.92,239.46
3838.15,307.921568627451,199.52941176470588,172.98039215686273,50.2,37.76,36.74
3838.2,58.0,237.0392156862745,-172.0,-45.8,19.63,1.25
3838.25,70.47058823529412,-301.4901960784314,-292.5098039215686,29.93,-25.83,48.78
3838.3,-282.5098039215686,232.0,58.0,4.56,-30.69,10.07
3838.35,-298.5098039215686,-45.0,227.0,13.2,-58.17,3.11
3838.4,226.49019607843138,-127.0,166.0,-14.75,-37.97,-29.33
3838.45,-289.01960784313724,-62.0,-64.0,-21.79,-43.15,-28.94
3838.5,242.49019607843138,84.0,-279.0,-25.64,-39.23,-10.15
3838.55,-320.01960784313724,133.0,316.5098039215686,-6.28,-36.08,1.57
3838.6,-241.01960784313727,133.0,301.5098039215686,-44.05,-27.51,4.09
3838.65,258.4901960784314,84.0,270.5098039215686,-18.99,-9.45,23.23
3838.7,194.49019607843138,232.0,116.50980392156863,-26.3,-4.86,29.78
3838.75,-273.01960784313724,150.0,239.50980392156862,-58.71,6.92,22.74
3838.8,-146.01960784313727,-13.0,209.50980392156862,-50.28,4.93,18.02
3838.85,-114.01960784313725,-45.0,-264.0,-76.84,6.71,12.66
3838.9,-82.01960784313725,-127.0,-156.0,-87.8,15.88,32.4
3838.95,-98.01960784313725,68.0,-3.0,-226.82,-13.93,29.18
3839.0,-130.01960784313727,-220.01960784313727,89.0,302.48,242.26,-54.95
3839.05,-3.019607843137255,-236.01960784313727,169.49019607843138,-229.97,167.4,-80.95
3839.1,-199.52941176470588,-84.50980392156863,132.88235294117646,-80.94,25.4,-263.37
3839.15,-79.03921568627452,199.0,-184.50980392156862,5.15,40.03,-132.54
3839.2,-302.03921568627453,9.509803921568627,283.05882352941177,32.7,33.35,-124.84
3839.25,108.98039215686275,19.0,-172.0,33.68,-1.15,-106.12
3839.3,-56.96078431372549,270.5098039215686,-218.0,27.24,16.34,-76.37
3839.35,-120.96078431372548,193.9607843137255,193.50980392156862,7.5,33.38,-46.55
3839.4,238.52941176470588,-225.0,255.50980392156862,2.28,35.66,-19.63
3839.45,-186.50980392156862,-181.98039215686273,193.50980392156862,4.45,24.49,-11.55
3839.5,-82.01960784313725,58.509803921568626,286.5098039215686,7.53,24.28,2.09
3839.55,-98.01960784313725,117.0,147.50980392156862,23.42,8.29,16.37
3839.6,283.98039215686276,199.0,193.50980392156862,6.52,8.46,8.22
3839.65,-50.01960784313726,166.0,209.50980392156862,-0.26,7.87,11.02
3839.7,-50.01960784313726,183.0,193.50980392156862,15.3,13.26,12.45
3839.75,-241.01960784313727,199.0,132.50980392156862,5.22,-0.31,15.85
3839.8,306.4901960784314,19.0,132.50980392156862,-4.18,0.27,20.99
3839.85,194.49019607843138,3.0,55.509803921568626,-4.08,2.13,30.9
3839.9,-305.01960784313724,3.0,70.50980392156863,17.4,-2.34,59.18
3839.95,-241.01960784313727,215.0,86.50980392156863,16.56,8.85,93.34
3840.0,-257.01960784313724,232.0,-67.49019607843137,38.47,25.89,131.14
3840.05,306.4901960784314,215.0,132.50980392156862,92.55,12.94,129.0
3840.1,67.49019607843137,52.0,116.50980392156863,81.28,6.96,152.98
3840.15,-218.50980392156862,-231.50980392156862,-113.49019607843137,9.18,145.03,80.14
3840.2,297.0,-149.50980392156862,-317.98039215686276,85.16,153.82,-218.22
3840.25,201.0,-302.01960784313724,-3.0,-173.86,84.83,194.52
3840.3,171.98039215686273,-143.52941176470588,147.50980392156862,166.12,-23.83,-272.43
3840.35,-273.01960784313724,209.49019607843138,149.9607843137255,82.68,-9.76,211.81
3840.4,-168.52941176470588,232.0,-79.0,-91.16,51.23,-26.67
3840.45,163.49019607843138,248.0,-156.0,-25.29,1.81,-30.45
3840.5,-257.01960784313724,193.49019607843138,-184.50980392156862,-11.74,-22.61,-47.39
3840.55,-209.01960784313727,62.490196078431374,258.0,9.6,-39.23,-18.2
3840.6,178.49019607843138,-2.5098039215686274,135.0,2.6,-37.8,-18.48
3840.65,163.49019607843138,-296.5098039215686,-79.0,-27.56,-21.8,-8.54
3840.7,194.49019607843138,-18.50980392156863,-126.0,-24.83,-19.98,5.28
3840.75,226.49019607843138,46.490196078431374,-141.0,-46.04,-25.44,6.19
3840.8,242.49019607843138,79.49019607843137,-79.0,-58.33,-35.77,-10.92
3840.85,306.4901960784314,209.49019607843138,-64.0,-10.9,-53.44,-23.13
3840.9,-146.01960784313727,226.49019607843138,-172.0,-65.47,-37.69,-26.56
3840.95,-3.019607843137255,193.49019607843138,255.50980392156862,-57.1,-29.12,-19.42
3841.0,-3.019607843137255,-318.01960784313724,193.50980392156862,-43.94,-13.58,-12.0
3841.05,-66.01960784313725,226.49019607843138,224.50980392156862,-123.01,-1.82,-7.73
3841.1,-161.01960784313727,258.4901960784314,-233.0,-145.23,29.5,11.71
3841.15,-193.01960784313727,291.4901960784314,-218.0,-228.92,-51.83,35.16
3841.2,76.98039215686275,193.49019607843138,-79.0,-318.55,275.69,297.13
3841.25,-24.529411764705884,-149.50980392156862,73.0,15.62,-48.89,-117.5
3841.3,-302.03921568627453,-13.0,-105.47058823529412,-107.78,-24.6,0.55
3841.35,238.9607843137255,-138.49019607843138,-52.490196078431374,9.46,-2.93,-47.36
3841.4,267.98039215686276,-296.5098039215686,-313.4901960784314,28.08,-4.16,-65.56
3841.45,-159.47058823529412,248.0,-283.4901960784314,41.8,5.25,-29.61
3841.5,-202.94117647058823,-284.54901960784315,-310.0,31.33,5.84,-7.95
3841.55,231.01960784313727,-198.50980392156862,286.5098039215686,9.53,14.03,0.41
3841.6,170.0,-176.47058823529412,55.509803921568626,8.02,13.79,-23.42
3841.65,-66.01960784313725,243.01960784313727,101.50980392156863,3.75,9.69,-11.52
3841.7,-34.01960784313726,264.0,301.5098039215686,2.04,0.91,0.13
3841.75,76.98039215686275,-198.50980392156862,239.50980392156862,-25.22,8.96,0.41
3841.8,-34.01960784313726,297.0,9.509803921568627,-5.44,10.67,13.29
3841.85,290.4901960784314,297.0,-36.490196078431374,-2.29,4.13,5.06
3841.9,-273.01960784313724,313.0,55.509803921568626,5.19,6.82,0.2
3841.95,-320.01960784313724,264.0,147.50980392156862,7.81,6.51,15.63
3842.0,290.4901960784314,166.0,101.50980392156863,17.65,5.95,34.11
3842.05,-289.01960784313724,248.0,-36.490196078431374,5.12,16.03,50.49
3842.1,-289.01960784313724,199.0,-83.49019607843137,18.17,3.18,86.86
3842.15,-320.01960784313724,-182.50980392156862,55.509803921568626,62.1,24.39,104.15
3842.2,-289.01960784313724,313.0,178.50980392156862,131.33,-0.9,126.37
3842.25,-320.01960784313724,101.0,178.50980392156862,-11.08,17.53,121.51
3842.3,51.490196078431374,133.0,-313.4901960784314,60.52,85.19,63.2
3842.35,-186.50980392156862,248.0,155.52941176470588,131.01,152.49,-313.29
3842.4,154.0,264.0,-18.0,-167.04,37.62,-146.97
3842.45,240.62745098039215,-149.50980392156862,-98.49019607843137,77.67,-25.3,-215.98
3842.5,21.92156862745098,-231.50980392156862,-281.03921568627453,-28.44,9.97,225.98
3842.55,4.490196078431373,177.49019607843138,-95.0,56.74,-4.61,-55.51
3842.6,290.4901960784314,215.0,258.0,-24.97,-1.25,-97.97
3842.65,35.490196078431374,297.0,181.0,2.74,-17.39,-60.52
3842.7,131.49019607843138,13.490196078431373,-141.0,-0.47,-31.42,-21.88
3842.75,-305.01960784313724,177.49019607843138,-187.0,31.79,-35.83,-24.68
3842.8,-209.01960784313727,-18.50980392156863,-280.0,-9.5,-11.3,-36.33
3842.85,-320.01960784313724,-231.50980392156862,301.5098039215686,-11.67,-16.09,-7.7
3842.9,194.49019607843138,-67.50980392156863,-279.0,-42.4,-10.81,-4.03
3842.95,194.49019607843138,-302.01960784313724,-233.0,-28.65,-23.48,-12.67
3843.0,-273.01960784313724,193.49019607843138,209.50980392156862,-16.89,-38.28,0.93
3843.05,-161.01960784313727,111.49019607843137,209.50980392156862,-43.38,-35.87,11.12
3843.1,-114.01960784313725,-318.01960784313724,163.50980392156862,-69.7,-25.12,28.16
3843.15,-98.01960784313725,-155.01960784313727,24.50980392156863,-66.55,-15.67,33.03
3843.2,-66.01960784313725,-286.01960784313724,86.50980392156863,-100.82,-3.91,21.83
3843.25,-82.01960784313725,226.49019607843138,70.50980392156863,-136.62,3.74,27.74
3843.3,-130.01960784313727,291.4901960784314,209.50980392156862,-162.14,-17.04,43.25
3843.35,-114.01960784313725,275.4901960784314,286.5098039215686,-95.84,-317.02,-160.06
3843.4,-18.019607843137255,-302.01960784313724,209.50980392156862,-207.01,156.2,22.53
3843.45,-295.52941176470586,177.49019607843138,39.509803921568626,-100.57,41.86,-119.67
3843.5,111.96078431372548,264.0,-267.4901960784314,-30.78,54.18,-45.68
3843.55,-85.54901960784314,-241.0,-283.4901960784314,16.32,-0.48,-62.83
3843.6,-18.019607843137255,-111.0,98.01960784313725,20.73,-5.7,-79.07
3843.65,63.529411764705884,35.0,-15.509803921568627,18.98,-18.02,-61.95
3843.7,287.078431372549,95.96078431372548,-203.0,15.65,0.35,-29.02
3843.75,65.50980392156863,-301.4901960784314,-246.50980392156862,-2.64,39.58,-13.09
3843.8,288.5098039215686,-40.96078431372549,43.0,12.96,13.79,-33.5
3843.85,194.49019607843138,308.01960784313724,-49.0,-5.44,2.13,-37.59
3843.9,283.98039215686276,303.5098039215686,43.0,6.52,-1.01,-8.12
3843.95,108.98039215686275,-209.0,-141.0,16.25,2.76,-1.26
3844.0,-146.01960784313727,68.0,-310.0,-11.88,10.25,-4.52
3844.05,-209.01960784313727,215.0,-233.0,10.79,6.09,-0.7
3844.1,-289.01960784313724,84.0,-110.0,-7.12,-2.44,6.5
3844.15,-241.01960784313727,19.0,-141.0,11.38,-7.76,16.54
3844.2,-289.01960784313724,52.0,-264.0,8.69,5.25,28.23
3844.25,-320.01960784313724,84.0,316.5098039215686,3.93,10.18,48.46
3844.3,-305.01960784313724,52.0,193.50980392156862,-10.38,6.02,84.27
3844.35,-320.01960784313724,52.0,224.50980392156862,-8.31,-0.76,121.79
3844.4,242.49019607843138,52.0,316.5098039215686,-39.5,-9.79,138.69
3844.45,194.49019607843138,3.0,-295.0,-50.38,7.0,140.16
3844.5,178.49019607843138,84.0,-49.0,-54.41,81.65,110.76
3844.55,147.49019607843138,101.0,89.0,-199.45,182.42,-245.6
3844.6,-154.50980392156862,117.0,-276.5098039215686,-287.37,161.28,159.86
3844.65,-225.01960784313727,-40.490196078431374,215.49019607843138,-58.75,73.92,180.45
3844.7,-26.07843137254902,-307.47058823529414,171.52941176470588,-10.24,-97.15,267.91
3844.75,149.47058823529412,-236.49019607843138,-70.98039215686275,-14.09,-3.7,90.95
3844.8,-40.529411764705884,79.49019607843137,-218.0,7.18,-7.69,17.94
3844.85,99.49019607843137,79.49019607843137,-233.0,2.04,-53.75,34.81
3844.9,210.49019607843138,46.490196078431374,-203.0,-15.52,-23.76,-10.96
3844.95,306.4901960784314,62.490196078431374,147.50980392156862,-23.4,0.56,-18.9
3845.0,-257.01960784313724,68.0,-310.0,-11.88,-1.22,-14.07
3845.05,274.4901960784314,215.0,-233.0,10.79,-8.25,-4.1
3845.1,178.49019607843138,84.0,-110.0,-7.12,-17.84,-14.07
3845.15,274.4901960784314,19.0,-141.0,11.38,-22.88,-15.72
3845.2,258.4901960784314,52.0,-264.0,8.69,-20.82,-8.23
3845.25,-320.01960784313724,84.0,316.5098039215686,3.93,-10.07,-5.32
3845.3,-225.01960784313727,52.0,193.50980392156862,-10.38,-3.11,-1.47
3845.35,-82.01960784313725,52.0,224.50980392156862,-8.31,-6.01,0.2
3845.4,-18.019607843137255,52.0,316.5098039215686,-39.5,5.46,2.72
3845.45,-98.01960784313725,3.0,-295.0,-50.38,-1.74,13.32
3845.5,-177.01960784313727,84.0,-49.0,-54.41,24.53,19.52
3845.55,-225.01960784313727,101.0,89.0,-199.45,-54.0,44.68
3845.6,-161.01960784313727,117.0,-276.5098039215686,-287.37,-170.51,58.89
3845.65,-50.01960784313726,-40.490196078431374,215.49019607843138,-58.75,4.51,-140.18
3845.7,267.98039215686276,-307.47058823529414,171.52941176470588,-10.24,46.51,-159.92
3845.75,-295.52941176470586,-236.49019607843138,-70.98039215686275,-14.09,0.17,-65.38
3845.8,-95.03921568627452,79.49019607843137,-218.0,7.18,-13.26,-72.35
3845.85,301.96078431372547,79.49019607843137,-233.0,2.04,-27.75,-53.38
3845.9,-305.01960784313724,46.490196078431374,-203.0,-15.52,-9.44,-30.1
3845.95,-75.94117647058823,62.490196078431374,147.50980392156862,-23.4,19.28,-17.5
3846.0,-299.4901960784314,-18.50980392156863,116.50980392156863,-22.28,11.16,-6.02
3846.05,-292.98039215686276,62.490196078431374,193.50980392156862,17.68,-9.23,-9.56
3846.1,-27.50980392156863,95.49019607843137,101.50980392156863,11.31,0.91,6.57
3846.15,-66.01960784313725,-2.5098039215686274,-280.0,2.14,3.11,12.83
3846.2,44.98039215686274,144.49019607843138,178.50980392156862,10.19,-0.83,18.99
3846.25,-18.019607843137255,177.49019607843138,193.50980392156862,10.02,-4.26,15.21
3846.3,-3.019607843137255,177.49019607843138,178.50980392156862,-14.79,-1.85,6.15
3846.35,-320.01960784313724,177.49019607843138,101.50980392156863,-15.52,6.89,7.27
3846.4,178.49019607843138,-318.01960784313724,86.50980392156863,13.45,8.71,17.63
3846.45,99.49019607843137,258.4901960784314,86.50980392156863,19.22,0.17,28.44
3846.5,-289.01960784313724,79.49019607843137,163.50980392156862,22.34,6.12,52.17
3846.55,-193.01960784313727,209.49019607843138,147.50980392156862,24.82,3.25,69.85
3846.6,-225.01960784313727,242.49019607843138,255.50980392156862,23.95,-6.36,90.64
3846.65,-273.01960784313724,62.490196078431374,239.50980392156862,53.98,-18.33,119.44
3846.7,306.4901960784314,-35.509803921568626,286.5098039215686,52.61,-16.02,142.05
3846.75,258.4901960784314,-214.50980392156862,101.50980392156863,122.51,53.55,113.91
3846.8,163.49019607843138,52.0,113.01960784313725,140.32,124.42,-88.8
3846.85,-250.50980392156862,-279.98039215686276,52.01960784313726,77.78,189.63,216.84
3846.9,217.0,133.0,-49.0,179.17,7.59,-67.8
3846.95,210.49019607843138,-280.5098039215686,193.50980392156862,79.88,-84.03,-267.89
3847.0,-168.52941176470588,-209.94117647058823,-83.49019607843137,-141.45,-5.52,160.08
3847.05,152.45098039215685,13.549019607843137,58.0,-107.78,43.5,38.21
3847.1,-215.52941176470588,14.019607843137255,178.50980392156862,-16.26,-5.59,56.65
3847.15,178.49019607843138,-225.0,-156.0,2.56,-18.19,37.37
3847.2,274.4901960784314,188.50980392156862,-110.0,-82.27,-11.68,55.71
3847.25,306.4901960784314,270.5098039215686,-18.0,-37.61,4.06,-13.58
3847.3,290.4901960784314,254.50980392156862,-172.0,-47.97,12.18,-13.9
3847.35,242.49019607843138,-290.0,-187.0,-13.91,5.74,-25.76
3847.4,258.4901960784314,303.5098039215686,12.0,-25.95,-4.54,-37.0
3847.45,306.4901960784314,286.5098039215686,-79.0,-26.76,-21.48,-67.69
3847.5,290.4901960784314,286.5098039215686,-49.0,-9.89,-27.26,-82.29
3847.55,-130.01960784313727,-29.0,-110.0,10.58,-34.68,-69.13
3847.6,76.98039215686275,84.0,255.50980392156862,8.16,-29.88,-50.3
3847.65,12.980392156862745,248.0,239.50980392156862,-22.91,-31.77,-17.99
3847.7,-130.01960784313727,-296.5098039215686,132.50980392156862,-82.86,-19.77,-8.54
3847.75,-98.01960784313725,232.0,316.5098039215686,-39.92,-4.96,-11.94
3847.8,-161.01960784313727,101.0,-203.0,-110.83,7.31,5.73
3847.85,-114.01960784313725,-13.0,27.0,-138.58,-57.43,77.44
3847.9,187.98039215686273,-149.50980392156862,-107.50980392156863,-141.24,-71.22,-247.45
3847.95,203.98039215686273,-127.52941176470588,-273.01960784313724,-219.19,143.64,-53.9
3848.0,31.96078431372549,-225.0,123.11764705882354,-61.27,71.43,-149.28
3848.05,206.9607843137255,-241.0,107.49019607843137,31.93,47.77,-118.58
3848.1,4.490196078431373,-312.5098039215686,9.509803921568627,65.77,34.4,-54.25
3848.15,258.05882352941177,57.98039215686274,39.509803921568626,65.74,22.64,-58.52
3848.2,287.078431372549,215.94117647058823,209.50980392156862,14.43,14.59,-45.68
3848.25,57.01960784313726,313.0,316.5098039215686,-8.1,22.57,-36.19
3848.3,-52.0,14.019607843137255,286.5098039215686,1.3,26.39,-19.81
3848.35,92.98039215686275,-89.49019607843137,193.50980392156862,20.17,10.85,-5.5
3848.4,-98.01960784313725,-127.0,-249.0,9.18,6.54,-5.43
3848.45,-66.01960784313725,-45.0,224.50980392156862,-12.2,16.76,4.43
3848.5,-273.01960784313724,68.0,255.50980392156862,-6.53,20.16,13.81
3848.55,-305.01960784313724,-62.0,147.50980392156862,9.0,12.49,6.36
3848.6,274.4901960784314,84.0,286.5098039215686,-2.36,-2.16,2.09
3848.65,-241.01960784313727,35.0,193.50980392156862,-1.73,-5.03,13.46
3848.7,-273.01960784313724,68.0,255.50980392156862,12.05,3.88,41.85
3848.75,-209.01960784313727,133.0,116.50980392156863,13.06,2.45,73.77
3848.8,-289.01960784313724,166.0,86.50980392156863,15.79,0.56,117.8
3848.85,-320.01960784313724,248.0,178.50980392156862,33.12,-17.53,169.42
3848.9,258.4901960784314,232.0,116.50980392156863,81.0,-23.62,152.13
3848.95,226.49019607843138,199.0,-129.49019607843138,157.54,15.26,103.97
3849.0,67.49019607843137,-13.0,-190.49019607843138,203.25,96.46,-14.98
3849.05,51.490196078431374,-62.0,298.01960784313724,32.14,154.84,-284.27
3849.1,-266.5098039215686,101.0,193.50980392156862,124.92,108.99,214.71
3849.15,-177.01960784313727,-51.509803921568626,316.5098039215686,255.82,26.6,300.99
3849.2,12.431372549019608,178.01960784313727,320.0,-84.51,-40.56,170.51
3849.25,-161.01960784313727,84.0,0.49019607843137253,-78.73,15.5,14.9
3849.3,165.47058823529412,177.49019607843138,116.50980392156863,-17.48,-47.17,17.03
3849.35,99.49019607843137,-149.50980392156862,-64.0,18.63,-42.45,-14.77
3849.4,-305.01960784313724,-84.50980392156863,301.5098039215686,-23.61,-10.32,-12.95
3849.45,306.4901960784314,111.49019607843137,163.50980392156862,31.19,-1.92,-30.49
3849.5,226.49019607843138,-2.5098039215686274,-264.0,-9.4,5.7,-44.52
3849.55,242.49019607843138,95.49019607843137,-172.0,-9.36,-6.57,-24.71
3849.6,290.4901960784314,62.490196078431374,-141.0,-1.91,-16.69,-25.48
3849.65,258.4901960784314,-67.50980392156863,-233.0,-31.59,-15.36,-25.59
3849.7,-320.01960784313724,79.49019607843137,-249.0,-36.45,-7.48,-5.43
3849.75,-289.01960784313724,258.4901960784314,209.50980392156862,-60.6,-9.44,10.98
3849.8,-177.01960784313727,226.49019607843138,316.5098039215686,-31.27,-26.66,21.76
3849.85,-114.01960784313725,-236.01960784313727,-310.0,-17.52,-27.29,21.97
3849.9,60.98039215686274,-253.01960784313727,-233.0,-43.66,-6.22,23.58
3849.95,-66.01960784313725,-318.01960784313724,286.5098039215686,-84.75,17.36,14.13
3850.0,-177.01960784313727,-302.01960784313724,255.50980392156862,-144.81,50.15,11.05
3850.05,-130.01960784313727,275.4901960784314,86.50980392156863,-204.28,-64.74,9.58
3850.1,-66.01960784313725,-236.01960784313727,-144.49019607843138,260.02,162.81,-158.34
3850.15,118.47058823529412,232.0,-6.490196078431373,21.18,15.08,-180.5
3850.2,254.9607843137255,139.50980392156862,9.509803921568627,-46.57,50.71,-105.81
3850.25,-270.03921568627453,-40.490196078431374,82.01960784313725,-37.05,-5.14,-43.58
3850.3,-27.50980392156863,215.0,-172.0,-11.64,4.2,-31.5
3850.35,178.05882352941177,-116.50980392156863,-221.49019607843138,31.37,31.95,-21.95
3850.4,-82.45098039215686,236.98039215686273,-174.0392156862745,41.17,13.02,-10.71
3850.45,-172.49019607843138,205.50980392156862,12.0,26.29,-0.03,-8.3
3850.5,106.0,25.50980392156863,120.0,-3.06,-1.95,-14.53
3850.55,-82.01960784313725,172.50980392156862,150.0,5.05,-13.68,-7.0
3850.6,92.98039215686275,-78.0,-49.0,3.75,-18.93,-4.55
3850.65,171.98039215686273,133.0,-126.0,13.62,4.23,10.1
3850.7,-82.01960784313725,101.0,-64.0,8.62,2.27,8.46
3850.75,-241.01960784313727,-296.5098039215686,-126.0,-5.44,-9.3,-4.66
3850.8,242.49019607843138,-198.50980392156862,-203.0,3.05,-9.44,-7.11
3850.85,306.4901960784314,-149.50980392156862,147.50980392156862,4.45,-12.56,7.69
3850.9,-241.01960784313727,150.0,116.50980392156863,22.55,1.71,41.43
3850.95,-289.01960784313724,-29.0,-129.49019607843138,36.13,8.75,65.05
3851.0,-305.01960784313724,-209.0,147.50980392156862,46.49,4.48,85.6
3851.05,-320.01960784313724,-209.0,-172.0,87.93,13.33,126.02
3851.1,-305.01960784313724,-209.0,316.5098039215686,108.96,0.21,133.23
3851.15,226.49019607843138,-290.0,58.0,137.31,38.11,84.58
3851.2,-91.50980392156863,-13.0,73.0,122.51,118.96,-53.45
3851.25,-91.50980392156863,313.0,-304.01960784313724,42.5,81.34,323.91
3851.3,184.5686274509804,117.52941176470588,132.88235294117646,-243.26,1.54,299.48
3851.35,68.92156862745098,-160.47058823529412,84.47058823529412,163.28,-2.79,-308.49
3851.4,-131.0,111.49019607843137,145.05882352941177,-69.21,33.28,179.78
3851.45,-9.529411764705882,275.4901960784314,-33.0,45.93,0.8,66.17
3851.5,35.490196078431374,95.49019607843137,-172.0,20.41,-21.38,10.63
3851.55,51.490196078431374,-198.50980392156862,-172.0,-13.07,-14.97,-42.56
3851.6,-75.50980392156863,-133.50980392156862,316.5098039215686,2.11,-23.72,-33.29
3851.65,-123.50980392156863,111.49019607843137,116.50980392156863,-8.84,-18.19,-44.21
3851.7,83.49019607843137,258.4901960784314,24.50980392156863,-11.15,-33.66,-20.34
3851.75,194.49019607843138,46.490196078431374,178.50980392156862,3.65,-38.18,35.48
3851.8,147.49019607843138,95.49019607843137,-310.0,-21.02,-29.92,62.92
3851.85,83.49019607843137,128.49019607843138,193.50980392156862,-11.22,-24.49,66.45
3851.9,131.49019607843138,-318.01960784313724,132.50980392156862,-47.09,9.94,42.97
3851.95,210.49019607843138,-269.01960784313724,239.50980392156862,-72.26,21.38,22.25
3852.0,274.4901960784314,-253.01960784313727,147.50980392156862,-75.41,2.38,19.1
3852.05,-273.01960784313724,-253.01960784313727,-172.0,-95.43,12.42,19.24
3852.1,-225.01960784313727,-122.01960784313725,316.5098039215686,-128.85,17.29,5.66
3852.15,-209.01960784313727,-171.01960784313727,58.0,-206.48,9.66,14.02
3852.2,-225.01960784313727,-138.01960784313727,73.0,-189.12,-205.27,35.16
3852.25,-98.01960784313725,24.980392156862745,-304.01960784313724,-230.63,161.49,-16.56
3852.3,-161.01960784313727,-269.01960784313724,132.88235294117646,80.68,-45.53,-314.48
3852.35,-177.01960784313727,-302.01960784313724,84.47058823529412,35.85,17.32,-176.82
3852.4,203.98039215686273,275.4901960784314,145.05882352941177,-4.67,-33.14,-89.95
3852.45,285.96078431372547,68.0,-33.0,-24.24,-3.11,-56.91
3852.5,285.96078431372547,-56.490196078431374,-172.0,12.47,0.35,-50.79
3852.55,281.0,-247.50980392156862,-172.0,8.97,9.48,-41.27
3852.6,178.05882352941177,187.98039215686273,316.5098039215686,-15.31,29.43,-19.32
3852.65,12.549019607843137,-137.07843137254903,116.50980392156863,-11.46,18.48,4.15
3852.7,-117.98039215686275,-280.5098039215686,24.50980392156863,-5.83,16.45,3.0
3852.75,-11.509803921568627,182.52941176470588,178.50980392156862,17.19,9.69,2.82
3852.8,-3.019607843137255,-209.0,-310.0,6.8,13.19,3.59
3852.85,226.49019607843138,-45.0,193.50980392156862,16.49,10.25,10.94
3852.9,60.98039215686274,-192.0,132.50980392156862,18.31,10.08,14.58
3852.95,-225.01960784313727,-45.0,239.50980392156862,10.09,12.07,11.29
3853.0,274.4901960784314,52.0,-295.0,-27.39,6.93,3.38
3853.05,274.4901960784314,-94.0,-172.0,-16.26,7.56,-4.73
3853.1,-305.01960784313724,19.0,-110.0,-4.22,-6.5,6.04
3853.15,290.4901960784314,-45.0,-64.0,-32.57,2.24,35.65
3853.2,-289.01960784313724,297.0,-110.0,-1.03,11.65,60.96
3853.25,-209.01960784313727,150.0,-64.0,-22.07,3.46,94.35
3853.3,-257.01960784313724,297.0,316.5098039215686,-20.35,-1.64,133.44
3853.35,-273.01960784313724,-280.5098039215686,-218.0,-36.73,-30.23,175.23
3853.4,131.49019607843138,166.0,-172.0,-92.03,36.43,174.88
3853.45,-154.50980392156862,-312.5098039215686,43.0,-160.46,185.39,-59.4
3853.5,-75.50980392156863,95.49019607843137,-49.0,-278.16,159.28,313.34
3853.55,194.49019607843138,-296.5098039215686,77.49019607843137,-178.87,147.21,254.92
3853.6,-255.90196078431373,-149.0392156862745,-138.88235294117646,-108.52,-34.68,-247.77
3853.65,25.45098039215686,-220.01960784313727,-161.52941176470588,30.46,-46.4,139.71
3853.7,-305.01960784313724,-2.5098039215686274,175.01960784313727,12.99,5.77,30.16
3853.75,-177.01960784313727,13.490196078431373,286.5098039215686,29.41,-21.1,40.97
3853.8,194.49019607843138,62.490196078431374,9.509803921568627,21.15,-6.08,18.26
3853.85,-225.01960784313727,-100.50980392156863,301.5098039215686,0.99,-1.08,-34.51
3853.9,-289.01960784313724,-100.50980392156863,-126.0,-25.99,12.21,-50.65
3853.95,290.4901960784314,-67.50980392156863,316.5098039215686,8.02,15.33,-30.35
3854.0,306.4901960784314,-2.5098039215686274,209.50980392156862,8.72,9.69,-24.68
3854.05,-241.01960784313727,-116.50980392156863,239.50980392156862,-4.6,-9.65,-24.57
3854.1,-177.01960784313727,30.49019607843137,255.50980392156862,-17.94,-34.92,-19.64
3854.15,-114.01960784313725,144.49019607843138,55.509803921568626,-11.5,-37.41,2.05
3854.2,92.98039215686275,-269.01960784313724,162.50980392156862,-20.56,-44.02,3.8
3854.25,187.98039215686273,193.49019607843138,178.50980392156862,-24.97,-17.77,6.46
3854.3,60.98039215686274,95.49019607843137,9.509803921568627,15.02,-10.88,5.83
3854.35,76.98039215686275,275.4901960784314,-187.0,32.03,28.31,11.89
3854.4,-114.01960784313725,-286.01960784313724,-141.0,32.42,45.92,44.19
3854.45,-98.01960784313725,291.4901960784314,270.5098039215686,46.07,31.43,120.74
3854.5,-18.019607843137255,177.49019607843138,301.5098039215686,68.57,-128.69,106.77
3854.55,28.980392156862745,111.49019607843137,224.50980392156862,191.39,64.78,29.18
3854.6,118.47058823529412,117.0,-113.49019607843137,194.05,6.75,-189.28
3854.65,-117.54901960784314,210.01960784313727,-255.98039215686273,176.41,36.47,-148.47
3854.7,-152.52941176470588,150.0,-298.4901960784314,226.35,-8.39,-73.92
3854.75,247.01960784313727,297.0,-246.50980392156862,-237.91,10.57,-49.77
3854.8,240.62745098039215,-186.54901960784315,109.52941176470588,211.93,-9.09,-30.21
3854.85,-133.98039215686273,139.50980392156862,-79.0,-41.49,12.6,-17.78
3854.9,-234.50980392156862,-296.45098039215685,-273.01960784313724,-69.25,9.13,-15.82
3854.95,-3.019607843137255,-66.98039215686275,-230.50980392156862,27.62,-3.46,-12.5
3855.0,-114.01960784313725,-290.0,73.0,-22.94,-4.82,-5.5
3855.05,-66.01960784313725,-209.0,-3.0,29.55,4.72,7.27
3855.1,-177.01960784313727,232.0,-110.0,-27.98,2.31,-10.85
3855.15,-225.01960784313727,313.0,-49.0,-12.16,5.88,-5.57
3855.2,-225.01960784313727,248.0,-233.0,-26.93,-8.57,-9.52
3855.25,-177.01960784313727,150.0,-187.0,-22.59,1.22,-12.5
3855.3,-305.01960784313724,133.0,-310.0,-21.89,-3.14,11.43
3855.35,-241.01960784313727,-247.50980392156862,-98.49019607843137,-18.43,-1.18,45.98
3855.4,-82.01960784313725,232.0,-6.490196078431373,-19.09,-5.31,79.89
3855.45,-225.01960784313727,68.0,-313.4901960784314,-3.83,-10.91,94.66
3855.5,-209.01960784313727,319.5098039215686,193.50980392156862,-56.09,-15.15,110.34
3855.55,147.49019607843138,319.5098039215686,-218.0,299.57,-13.29,123.54
3855.6,-298.5098039215686,-209.0,150.0,-178.81,59.5,20.22
3855.65,-20.0,74.50980392156863,102.96078431372548,-145.48,128.27,-214.73
3855.7,57.450980392156865,-127.05882352941177,-138.88235294117646,-118.53,59.11,117.09
3855.75,-162.5686274509804,3.4705882352941178,-267.4901960784314,-11.88,214.06,159.34
3855.8,-88.52941176470588,236.98039215686273,-252.49019607843138,-61.55,33.56,213.94
3855.85,-3.019607843137255,242.49019607843138,39.509803921568626,-26.48,21.38,49.37
3855.9,-91.50980392156863,-198.50980392156862,132.50980392156862,-1.28,2.34,14.93
3855.95,-123.50980392156863,-231.50980392156862,-187.0,-2.89,-32.89,-28.25
3856.0,-139.50980392156862,128.49019607843138,73.0,-22.94,-22.01,-65.49
3856.05,-202.50980392156862,-302.01960784313724,-3.0,29.55,-35.1,-58.91
3856.1,99.49019607843137,193.49019607843138,-110.0,-27.98,-34.29,-6.51
3856.15,35.490196078431374,177.49019607843138,-49.0,-12.16,-31.56,2.26
3856.2,67.49019607843137,111.49019607843137,-233.0,-26.93,-33.21,4.05
3856.25,115.49019607843137,-220.01960784313727,-187.0,-22.59,-31.95,24.52
3856.3,178.49019607843138,-220.01960784313727,-310.0,-21.89,-5.28,51.68
3856.35,210.49019607843138,209.49019607843138,-98.49019607843137,-18.43,3.08,58.09
3856.4,210.49019607843138,-220.01960784313727,-6.490196078431373,-19.09,35.28,48.71
3856.45,-305.01960784313724,-220.01960784313727,-313.4901960784314,-3.83,42.17,21.02
3856.5,-161.01960784313727,-286.01960784313724,193.50980392156862,-56.09,79.9,6.92
3856.55,-257.01960784313724,-187.01960784313727,-218.0,299.57,-17.0,-3.85
3856.6,-225.01960784313727,-187.01960784313727,150.0,-178.81,-52.11,144.15
3856.65,-146.01960784313727,258.4901960784314,102.96078431372548,-145.48,-100.55,-229.95
3856.7,28.980392156862745,144.49019607843138,-138.88235294117646,-118.53,67.72,-325.54
3856.75,28.980392156862745,144.49019607843138,-267.4901960784314,-11.88,-45.81,-256.52
3856.8,6.470588235294118,199.0,-252.49019607843138,-61.55,-55.12,-124.22
3856.85,-127.03921568627452,-154.49019607843138,39.509803921568626,-26.48,-5.35,-83.69
3856.9,-263.52941176470586,-263.5098039215686,132.50980392156862,-1.28,12.77,-54.88
3856.95,317.52941176470586,111.49019607843137,-187.0,-2.89,7.42,-24.47
3857.0,-139.50980392156862,128.49019607843138,286.5098039215686,-28.37,5.28,-11.38
3857.05,-202.50980392156862,-302.01960784313724,55.509803921568626,-22.42,1.99,10.35
3857.1,99.49019607843137,193.49019607843138,286.5098039215686,1.41,2.59,13.5
3857.15,35.490196078431374,177.49019607843138,-6.490196078431373,2.0,-8.81,17.84
3857.2,67.49019607843137,111.49019607843137,116.50980392156863,9.39,-4.68,34.32
3857.25,115.49019607843137,-220.01960784313727,163.50980392156862,21.71,-3.91,43.07
3857.3,178.49019607843138,-220.01960784313727,163.50980392156862,26.47,-0.24,29.74
3857.35,210.49019607843138,209.49019607843138,209.50980392156862,11.45,7.7,30.61
3857.4,210.49019607843138,-220.01960784313727,116.50980392156863,5.57,6.51,17.35
3857.45,-305.01960784313724,-220.01960784313727,-6.490196078431373,3.44,3.15,4.15
3857.5,-161.01960784313727,-286.01960784313724,-129.49019607843138,6.97,12.39,22.11
3857.55,-257.01960784313724,-187.01960784313727,-98.49019607843137,26.05,21.03,55.57
3857.6,-225.01960784313727,-187.01960784313727,55.509803921568626,47.36,9.66,84.83
3857.65,-146.01960784313727,258.4901960784314,39.509803921568626,65.88,-0.24,118.01
3857.7,28.980392156862745,144.49019607843138,70.50980392156863,86.81,3.85,156.51
3857.75,28.980392156862745,144.49019607843138,-98.49019607843137,111.1,8.75,167.99
3857.8,6.470588235294118,199.0,175.01960784313727,282.25,80.18,57.74
3857.85,-127.03921568627452,-154.49019607843138,-28.470588235294116,-314.38,123.41,-225.4
3857.9,-263.52941176470586,-263.5098039215686,-129.49019607843138,-86.58,34.65,273.3
3857.95,317.52941176470586,111.49019607843137,196.0,85.06,150.25,23.02
3858.0,280.5686274509804,183.0,86.50980392156863,318.22,19.95,-315.56
3858.05,90.0,227.01960784313727,-49.0,-115.9,31.95,-4.94
3858.1,2.5098039215686274,-225.47058823529412,-172.0,-111.0,22.33,-56.21
3858.15,-289.01960784313724,-17.980392156862745,-203.0,32.56,-20.96,-2.07
3858.2,-50.01960784313726,166.0,316.5098039215686,2.04,-25.65,6.78
3858.25,-82.01960784313725,35.0,-187.0,37.88,-33.28,11.26
3858.3,-34.01960784313726,183.0,-172.0,8.86,-11.54,4.96
3858.35,-257.01960784313724,133.0,-203.0,5.26,-8.74,-0.53
3858.4,258.4901960784314,199.0,-172.0,4.17,-13.36,0.51
3858.45,306.4901960784314,68.0,-203.0,17.37,-32.19,9.09
3858.5,-98.01960784313725,52.0,-187.0,-18.18,-12.7,-3.36
3858.55,-241.01960784313727,19.0,-279.0,-19.9,-3.28,0.65
3858.6,-225.01960784313727,52.0,-218.0,-30.54,6.3,12.8
3858.65,242.49019607843138,84.0,209.50980392156862,-19.16,0.07,23.96
3858.7,-289.01960784313724,166.0,224.50980392156862,16.07,-8.71,30.75
3858.75,-305.01960784313724,101.0,-264.0,-14.93,11.41,50.95
3858.8,210.49019607843138,35.0,-264.0,-80.17,58.2,51.05
3858.85,115.49019607843137,117.0,-218.0,-247.36,0.28,21.02
3858.9,201.0,205.50980392156862,-246.50980392156862,-259.23,261.06,-93.31
3858.95,145.50980392156862,280.05882352941177,150.0,-133.02,-35.8,-136.89
3859.0,295.45098039215685,-8.901960784313726,249.98039215686273,-65.29,25.93,-143.78
3859.05,-247.52941176470588,194.01960784313727,-240.98039215686273,-28.86,-34.05,-119.25
3859.1,31.96078431372549,150.0,147.50980392156862,-36.94,-0.34,-73.57
3859.15,-257.01960784313724,-94.0,-160.49019607843138,14.29,12.98,-47.99
3859.2,-273.01960784313724,84.0,135.0,15.09,16.13,-39.1
3859.25,-43.509803921568626,-312.5098039215686,209.50980392156862,11.94,0.17,-35.28
3859.3,258.4901960784314,-84.50980392156863,147.50980392156862,-18.36,-4.61,-40.95
3859.35,-241.01960784313727,-2.5098039215686274,178.50980392156862,-21.68,-5.35,-47.29
3859.4,-146.01960784313727,-116.50980392156863,147.50980392156862,-12.3,-8.57,-22.33
3859.45,-320.01960784313724,193.49019607843138,270.5098039215686,17.68,-18.58,-22.93
3859.5,306.4901960784314,-18.50980392156863,70.50980392156863,31.02,-1.15,-3.4
3859.55,-177.01960784313727,13.490196078431373,39.509803921568626,25.1,5.98,-5.92
3859.6,-50.01960784313726,209.49019607843138,-21.49019607843137,-13.28,-5.8,-18.38
3859.65,12.980392156862745,-302.01960784313724,-113.49019607843137,-6.6,-11.47,2.4
3859.7,-82.01960784313725,-204.01960784313727,-221.49019607843138,20.2,7.17,22.95
3859.75,-98.01960784313725,275.4901960784314,-98.49019607843137,42.95,26.84,41.39
3859.8,-66.01960784313725,30.49019607843137,24.50980392156863,33.68,25.48,72.4
3859.85,-18.019607843137255,226.49019607843138,39.509803921568626,53.63,11.41,98.65
3859.9,-34.01960784313726,160.49019607843138,70.50980392156863,56.71,-3.39,108.77
3859.95,60.98039215686274,-133.50980392156862,-6.490196078431373,128.04,5.81,136.77
3860.0,-295.52941176470586,30.49019607843137,82.01960784313725,132.59,85.61,71.81
3860.05,-260.54901960784315,-225.0,-175.49019607843138,132.34,136.43,-161.88
3860.1,-95.03921568627452,308.01960784313724,-160.49019607843138,-130.53,95.62,277.36
3860.15,42.0,-35.509803921568626,193.50980392156862,-260.9,101.99,-57.44
3860.2,162.05882352941177,313.0,-98.49019607843137,71.13,21.66,-280.87
3860.25,-54.98039215686274,199.0,-81.03921568627452,-125.91,15.01,158.68
3860.3,-220.49019607843138,150.0,27.0,-32.64,13.02,2.23
3860.35,-250.50980392156862,276.01960784313724,-110.0,-4.6,-22.25,-6.41
3860.4,155.98039215686273,-105.49019607843137,181.0,9.67,-28.59,-26.5
3860.45,-161.01960784313727,-94.0,-95.0,-33.34,-21.06,-9.59
3860.5,-98.01960784313725,35.0,-126.0,30.84,-45.04,-11.48
3860.55,-3.019607843137255,84.0,-203.0,-10.59,-27.12,-30.77
3860.6,-225.01960784313727,3.0,-279.0,-14.09,-18.26,-20.86
3860.65,-320.01960784313724,215.0,209.50980392156862,-13.32,-26.38,-6.79
3860.7,-241.01960784313727,52.0,-233.0,-20.77,-17.18,5.06
3860.75,-241.01960784313727,297.0,193.50980392156862,-20.21,-19.7,15.95
3860.8,-241.01960784313727,183.0,239.50980392156862,-18.29,-12.0,28.86
3860.85,290.4901960784314,150.0,224.50980392156862,-53.22,-2.51,26.62
3860.9,226.49019607843138,19.0,316.5098039215686,-57.7,5.98,14.86
3860.95,210.49019607843138,-78.0,-249.0,-114.57,30.76,3.03
3861.0,-193.01960784313727,-127.0,-64.0,-119.58,26.56,18.92
3861.05,44.98039215686274,-111.0,227.0,-191.15,-85.78,68.06
3861.1,-295.52941176470586,133.0,92.49019607843137,-42.65,-238.2,30.37
3861.15,292.47058823529414,286.5098039215686,39.88235294117647,-64.24,-57.39,-101.5
3861.2,285.96078431372547,3.5294117647058822,18.980392156862745,-80.13,49.66,-113.72
3861.25,235.98039215686273,-307.0,60.03921568627451,-63.19,-11.93,-74.1
3861.3,-252.49019607843138,128.49019607843138,-264.0,-48.07,11.23,-50.02
3861.35,-53.431372549019606,144.49019607843138,-36.490196078431374,39.94,0.91,-50.4
3861.4,74.0,62.490196078431374,-6.490196078431373,43.02,-11.19,-44.21
3861.45,104.01960784313725,-2.5098039215686274,-6.490196078431373,14.85,-1.15,-27.23
3861.5,-139.50980392156862,-51.509803921568626,101.50980392156863,-5.13,3.5,-6.76
3861.55,-241.01960784313727,160.49019607843138,132.50980392156862,5.4,7.94,6.81
3861.6,-52.0,258.4901960784314,193.50980392156862,22.16,5.88,15.95
3861.65,177.50980392156862,242.49019607843138,-52.490196078431374,34.59,5.88,7.13
3861.7,81.50980392156863,193.49019607843138,-36.490196078431374,27.2,1.26,-1.51
3861.75,-77.49019607843137,-253.01960784313727,-83.49019607843137,3.02,7.56,2.33
3861.8,136.01960784313727,275.4901960784314,39.509803921568626,4.31,1.01,8.98
3861.85,129.50980392156862,144.49019607843138,9.509803921568627,16.6,-1.04,23.58
3861.9,51.490196078431374,144.49019607843138,-6.490196078431373,15.3,7.49,33.8
3861.95,194.49019607843138,128.49019607843138,9.509803921568627,36.86,21.14,64.04
3862.0,131.49019607843138,193.49019607843138,132.50980392156862,36.86,8.82,89.73
3862.05,-202.50980392156862,177.49019607843138,70.50980392156863,67.84,-9.69,92.28
3862.1,90.0,-116.50980392156863,-144.49019607843138,67.03,8.33,91.9
3862.15,-84.0,281.0,-283.4901960784314,61.08,74.02,73.84
3862.2,-179.0,-143.0,-24.980392156862745,134.9,227.57,-133.32
3862.25,27.0,-165.50980392156862,124.52941176470588,-176.49,130.06,-327.29
3862.3,106.0,177.49019607843138,304.0,295.55,217.0,96.1
3862.35,-282.5098039215686,-78.0,21.019607843137255,127.23,-53.68,301.83
3862.4,-218.50980392156862,303.03921568627453,258.0,38.93,24.11,25.54
3862.45,-218.50980392156862,-40.96078431372549,-138.50980392156862,-198.5,20.54,-25.62
3862.5,74.0,-214.98039215686273,-169.50980392156862,-7.12,-110.14,46.19
3862.55,11.0,188.50980392156862,-230.50980392156862,8.86,-149.97,14.51
3862.6,42.0,-274.0,12.0,89.61,-159.1,-125.06
3862.65,11.0,-78.0,-172.0,-2.29,-188.64,-322.6
3862.7,170.0,199.0,301.5098039215686,-171.27,-128.41,224.72
3862.75,186.0,-138.01960784313727,-52.490196078431374,-124.06,-67.26,254.64
3862.8,249.0,308.96078431372547,98.01960784313725,-105.26,5.77,308.58
3862.85,106.0,9.450980392156863,221.01960784313727,-81.29,22.78,-195.41
3862.9,170.0,-219.54901960784315,144.01960784313727,-11.78,43.29,-46.87
3862.95,201.0,-2.0392156862745097,-313.4901960784314,32.28,46.76,71.32
3863.0,90.0,-29.0,313.01960784313724,47.89,48.47,119.34
3863.05,122.0,-209.0,-21.49019607843137,21.25,51.17,119.93
3863.1,170.0,68.0,-233.0,27.2,35.03,115.52
3863.15,74.0,35.0,270.5098039215686,41.13,14.7,114.47
3863.2,90.0,-94.0,-264.0,110.12,-4.86,121.54
3863.25,42.0,-78.0,224.50980392156862,183.62,-0.34,114.23
3863.3,27.0,-94.0,70.50980392156863,212.46,-25.68,108.1
3863.35,-52.0,-94.0,-21.49019607843137,176.3,-67.12,96.8
3863.4,-147.0,-143.0,101.50980392156863,116.94,-90.96,89.62
3863.45,-243.0,-111.0,-21.49019607843137,68.29,-76.92,77.23
3863.5,-259.0,-94.0,-313.4901960784314,46.0,-55.43,72.19
3863.55,-147.0,-160.0,282.01960784313724,5.22,-41.85,30.86
3863.6,-100.0,-160.0,-283.4901960784314,-0.47,-17.32,18.68
3863.65,-100.0,-176.0,-313.4901960784314,36.51,-31.21,-13.02
3863.7,-116.0,-127.0,144.01960784313727,-26.69,-11.16,-4.87
3863.75,-116.0,-111.0,313.01960784313724,19.85,-23.16,5.76
3863.8,-68.0,-176.0,236.01960784313727,9.35,-5.28,5.2
3863.85,-36.0,-143.0,159.01960784313727,22.06,-5.87,2.05
3863.9,-20.0,-127.0,-190.49019607843138,-6.32,14.17,39.47
3863.95,11.0,-94.0,221.01960784313727,-58.47,28.56,13.53
3864.0,27.0,-94.0,-298.4901960784314,20.62,-13.05,-31.15
3864.05,-4.0,-13.0,252.01960784313727,42.95,-26.31,-19.92
3864.1,-36.0,133.0,206.01960784313727,27.03,-25.68,-4.06
3864.15,27.0,166.0,313.01960784313724,-12.3,-26.24,40.76
3864.2,90.0,101.0,236.01960784313727,-18.81,-32.47,5.24
3864.25,170.0,166.0,313.01960784313724,6.94,-33.42,-17.54
3864.3,27.0,183.0,236.01960784313727,19.05,-20.75,-23.38
3864.35,11.0,199.0,252.01960784313727,-8.56,-8.25,-8.26
3864.4,-4.0,84.0,267.01960784313724,-4.22,-14.38,-44.91
3864.45,11.0,3.0,267.01960784313724,3.4,-12.38,-40.08
3864.5,170.0,-165.50980392156862,267.01960784313724,1.51,-8.92,-34.23
3864.55,122.0,133.0,-313.4901960784314,-8.1,-3.74,-36.65
3864.6,42.0,150.0,-313.4901960784314,-13.98,-1.74,-36.68
3864.65,-20.0,-45.0,313.01960784313724,-14.72,2.1,-32.45
3864.7,-68.0,-45.0,313.01960784313724,-12.02,7.45,-28.74
3864.75,27.0,3.0,267.01960784313724,-19.3,10.99,-21.11
3864.8,-52.0,3.0,313.01960784313724,-13.74,12.18,-11.8
3864.85,-147.0,-263.5098039215686,282.01960784313724,-10.31,15.85,-2.98
3864.9,-163.0,248.0,252.01960784313727,-7.16,25.58,20.01
3864.95,-84.0,297.0,236.01960784313727,-19.2,24.36,30.4
3865.0,-116.0,232.0,221.01960784313727,-39.81,15.96,27.92
3865.05,-116.0,281.0,190.01960784313727,-41.95,15.57,30.65
3865.1,11.0,232.0,129.01960784313727,-12.79,12.91,23.44
3865.15,27.0,264.0,221.01960784313727,18.94,-0.59,32.99
3865.2,-4.0,264.0,-283.4901960784314,0.39,4.86,19.48
3865.25,-4.0,117.0,-267.4901960784314,-32.74,7.03,21.51
3865.3,42.0,133.0,-252.49019607843138,-26.86,1.08,12.59
3865.35,-131.0,166.0,-298.4901960784314,-7.68,-15.64,-6.62
3865.4,58.0,232.0,-267.4901960784314,-41.32,-6.01,15.46
3865.45,186.0,264.0,-298.4901960784314,35.25,-45.49,20.81
3865.5,74.0,-13.0,252.01960784313727,-14.58,-32.65,45.28
3865.55,106.0,-214.50980392156862,-267.4901960784314,-20.6,-22.25,46.89
3865.6,201.0,281.0,206.01960784313727,-15.7,-6.64,24.45
3865.65,154.0,248.0,252.01960784313727,-22.7,19.21,-17.43
3865.7,154.0,150.0,206.01960784313727,13.97,10.22,-66.78
3865.75,-20.0,-214.50980392156862,144.01960784313727,-23.5,-1.36,-86.63
3865.8,138.0,133.0,221.01960784313727,-5.09,5.04,-97.16
3865.85,27.0,-62.0,98.01960784313725,-33.23,31.46,-57.96
3865.9,42.0,35.0,-313.4901960784314,-21.96,32.3,-27.16
3865.95,90.0,248.0,-283.4901960784314,-43.52,66.88,0.44
3866.0,154.0,101.0,-283.4901960784314,-36.1,69.37,-12.85
3866.05,138.0,19.0,-236.49019607843138,-16.33,9.83,-71.19
3866.1,201.0,117.0,-129.49019607843138,41.1,-18.37,-72.28
3866.15,122.0,117.0,-236.49019607843138,52.33,-10.11,-51.91
3866.2,42.0,133.0,-313.4901960784314,24.33,-1.01,-23.24
3866.25,27.0,248.0,282.01960784313724,2.39,18.13,-20.23
3866.3,-20.0,-231.50980392156862,267.01960784313724,40.15,-6.05,39.33
3866.35,27.0,68.0,55.509803921568626,41.03,3.81,100.93
3866.4,-36.0,101.0,282.01960784313724,-1.03,24.32,130.05
3866.45,-100.0,297.0,175.01960784313727,-26.93,6.68,93.3
3866.5,-163.0,281.0,236.01960784313727,27.87,-8.74,49.55
3866.55,-68.0,150.0,52.01960784313726,-11.57,11.13,64.04
3866.6,-84.0,117.0,-252.49019607843138,-11.36,-1.22,34.6
3866.65,-36.0,297.0,-206.49019607843138,-2.4,1.82,24.56
3866.7,-20.0,232.0,-298.4901960784314,37.04,-22.01,21.27
3866.75,58.0,264.0,-236.49019607843138,-0.23,-10.63,17.63
3866.8,42.0,248.0,-283.4901960784314,-34.28,36.01,45.21
3866.85,74.0,281.0,-267.4901960784314,3.51,-10.0,31.91
3866.9,122.0,248.0,-313.4901960784314,22.09,-10.88,28.93
3866.95,201.0,-51.509803921568626,-298.4901960784314,-16.01,16.83,-15.54
3867.0,90.0,-149.50980392156862,-129.49019607843138,-23.68,5.91,-70.74
3867.05,106.0,232.0,-36.490196078431374,17.12,-22.08,-95.66
3867.1,170.0,248.0,-160.49019607843138,24.33,-25.09,-137.1
3867.15,170.0,-263.5098039215686,-313.4901960784314,-22.28,10.04,-137.94
3867.2,106.0,-214.50980392156862,-283.4901960784314,-12.51,11.09,-135.03
3867.25,186.0,166.0,-283.4901960784314,7.25,6.54,-106.82
3867.3,122.0,166.0,-298.4901960784314,-12.62,13.68,-90.16
3867.35,170.0,232.0,-267.4901960784314,-18.64,17.43,-87.08
3867.4,170.0,166.0,-283.4901960784314,-11.88,13.72,-72.28
3867.45,201.0,215.0,-267.4901960784314,-30.19,17.57,-41.51
3867.5,233.0,150.0,-298.4901960784314,-35.33,8.47,-31.15
3867.55,186.0,183.0,282.01960784313724,-34.81,13.26,-25.94
3867.6,154.0,101.0,282.01960784313724,-29.17,19.74,-6.93
3867.65,186.0,264.0,298.01960784313724,-36.77,23.06,19.41
3867.7,186.0,133.0,298.01960784313724,-7.33,13.72,35.83
3867.75,58.0,117.0,-313.4901960784314,3.47,10.25,64.21
3867.8,27.0,166.0,144.01960784313727,24.02,-1.78,92.6
3867.85,58.0,313.0,252.01960784313727,-6.18,-2.55,94.98
3867.9,58.0,183.0,-267.4901960784314,12.96,-13.75,86.33
3867.95,-20.0,199.0,-252.49019607843138,11.1,-10.11,78.46
3868.0,-100.0,281.0,-298.4901960784314,3.12,-5.59,53.22
3868.05,-84.0,-149.50980392156862,-283.4901960784314,12.01,-5.31,33.52
3868.1,288.5098039215686,248.0,313.01960784313724,11.66,8.82,10.38
3868.15,-227.0,166.0,267.01960784313724,-2.57,22.75,-19.29
3868.2,-52.0,313.0,-267.4901960784314,-0.72,2.55,-32.48
3868.25,-4.0,281.0,313.01960784313724,10.12,8.99,-36.05
3868.3,-4.0,166.0,313.01960784313724,16.07,12.6,-55.34
3868.35,-36.0,297.0,-252.49019607843138,-5.23,14.73,-50.33
3868.4,-84.0,215.0,-267.4901960784314,-4.99,8.22,-53.69
3868.45,42.0,232.0,-313.4901960784314,3.09,-5.1,-49.07
3868.5,90.0,35.0,236.01960784313727,8.02,-6.96,-56.77
3868.55,154.0,117.0,282.01960784313724,1.34,-0.76,-80.22
3868.6,186.0,215.0,236.01960784313727,42.01,-22.92,-69.34
3868.65,42.0,183.0,221.01960784313727,43.09,-8.43,-40.22
3868.7,170.0,215.0,267.01960784313724,26.68,2.59,-61.57
3868.75,-313.5098039215686,-263.5098039215686,206.01960784313727,-24.45,16.94,-80.82
3868.8,233.0,150.0,-221.49019607843138,-13.0,-5.1,-75.04
3868.85,265.0,313.0,-267.4901960784314,-7.23,-3.32,-56.35
3868.9,313.0,133.0,-298.4901960784314,-5.83,-1.11,-70.98
3868.95,-234.50980392156862,281.0,-144.49019607843138,-35.75,1.54,-97.48
3869.0,313.0,281.0,-298.4901960784314,-4.71,-3.53,-61.43
3869.05,-218.50980392156862,-149.50980392156862,-283.4901960784314,2.67,32.62,23.68
3869.1,233.0,248.0,313.01960784313724,-35.96,61.11,48.57
3869.15,265.0,166.0,267.01960784313724,-1.24,16.8,-6.58
3869.2,186.0,313.0,-267.4901960784314,20.94,-24.56,-52.33
3869.25,217.0,281.0,313.01960784313724,16.63,-17.84,-74.06
3869.3,313.0,166.0,313.01960784313724,11.94,19.67,-33.46
3869.35,265.0,297.0,-252.49019607843138,3.09,70.94,61.52
3869.4,170.0,215.0,-267.4901960784314,10.47,67.06,67.33
3869.45,201.0,232.0,-313.4901960784314,-0.65,4.86,7.58
3869.5,154.0,35.0,236.01960784313727,12.68,-12.45,-35.32
3869.55,138.0,117.0,282.01960784313724,-5.27,50.33,81.64
3869.6,106.0,215.0,236.01960784313727,7.32,35.59,70.3
3869.65,201.0,183.0,221.01960784313727,-10.59,4.93,31.56
3869.7,186.0,215.0,267.01960784313724,0.57,-13.68,15.56
3869.75,74.0,-263.5098039215686,206.01960784313727,-17.76,11.37,42.97
3869.8,42.0,150.0,-221.49019607843138,18.17,28.35,80.94
3869.85,27.0,313.0,-267.4901960784314,5.96,-13.82,22.35
3869.9,90.0,133.0,-298.4901960784314,13.8,-32.12,-51.24
3869.95,-52.0,281.0,-144.49019607843138,-10.48,9.94,12.69
3870.0,313.0,133.0,-206.49019607843138,2.46,27.02,23.09
3870.05,-218.50980392156862,297.0,313.01960784313724,-0.75,-4.61,-16.42
3870.1,233.0,68.0,-283.4901960784314,10.37,-21.17,-62.93
3870.15,265.0,166.0,-221.49019607843138,-1.94,10.92,2.61
3870.2,186.0,133.0,313.01960784313724,16.81,2.8,-11.27
3870.25,217.0,166.0,267.01960784313724,7.81,-18.93,-73.19
3870.3,313.0,84.0,-252.49019607843138,10.44,-12.77,-67.34
3870.35,265.0,117.0,-313.4901960784314,6.97,-1.11,-61.18
3870.4,170.0,150.0,-313.4901960784314,4.94,-7.1,-49.7
3870.45,201.0,84.0,313.01960784313724,-2.15,-8.15,-55.37
3870.5,154.0,52.0,-313.4901960784314,0.39,-6.85,-52.08
3870.55,138.0,101.0,298.01960784313724,11.1,-3.6,-43.16
3870.6,106.0,68.0,-313.4901960784314,0.08,14.49,-26.74
3870.65,201.0,133.0,313.01960784313724,-1.14,1.19,-47.5
3870.7,186.0,133.0,206.01960784313727,-18.04,-3.07,-67.62
3870.75,74.0,166.0,98.01960784313725,8.72,18.09,-3.78
3870.8,42.0,-116.50980392156863,252.01960784313727,6.38,-1.04,-39.97
3870.85,27.0,183.0,-267.4901960784314,11.66,-18.19,-86.45
3870.9,90.0,150.0,-144.49019607843138,-37.4,11.69,-114.28
3870.95,-52.0,313.0,-267.4901960784314,18.84,19.7,-72.42
3871.0,122.0,-116.50980392156863,282.01960784313724,-13.28,29.68,-56.07
3871.05,-36.0,248.0,-313.4901960784314,-19.55,24.53,-52.89
3871.1,-259.0,133.0,-283.4901960784314,-1.24,16.38,-57.47
3871.15,113.50980392156863,248.0,313.01960784313724,12.22,6.47,-25.97
3871.2,-61.490196078431374,232.0,-313.4901960784314,15.2,11.69,10.59
3871.25,-172.49019607843138,199.0,-267.4901960784314,16.32,30.24,25.22
3871.3,49.509803921568626,183.0,-313.4901960784314,16.53,6.65,17.42
3871.35,129.50980392156862,133.0,236.01960784313727,-13.84,2.38,13.46
3871.4,34.509803921568626,133.0,206.01960784313727,19.12,10.99,86.96
3871.45,129.50980392156862,-214.50980392156862,144.01960784313727,2.84,20.09,64.98
3871.5,208.50980392156862,-231.50980392156862,175.01960784313727,-10.1,-14.59,24.35
3871.55,240.50980392156862,84.0,-221.49019607843138,-28.93,-12.63,29.32
3871.6,208.50980392156862,68.0,-175.49019607843138,1.3,-12.7,42.3
3871.65,-306.0,281.0,-221.49019607843138,1.3,-2.06,23.47
3871.7,224.50980392156862,-280.5098039215686,-313.4901960784314,-24.73,-12.07,11.54
3871.75,-156.49019607843138,199.0,-221.49019607843138,-18.11,-7.87,11.05
3871.8,-124.49019607843137,166.0,-252.49019607843138,-28.47,-10.04,10.77
3871.85,-93.49019607843137,101.0,-283.4901960784314,-23.99,-19.24,-7.28
3871.9,-93.49019607843137,117.0,-298.4901960784314,-29.14,-23.2,-46.48
3871.95,-61.490196078431374,183.0,313.01960784313724,-5.93,-49.38,-92.61
3872.0,-188.49019607843138,-214.50980392156862,-206.49019607843138,-13.88,-42.66,-76.16
3872.05,231.01960784313727,-18.50980392156863,-160.49019607843138,5.12,-59.32,-118.86
3872.1,-236.49019607843138,215.0,-206.49019607843138,-12.86,-72.06,-157.92
3872.15,304.5098039215686,-231.50980392156862,-221.49019607843138,-54.76,-78.18,-210.21
3872.2,193.50980392156862,-312.5098039215686,-252.49019607843138,-96.51,-54.35,-180.5
3872.25,-61.490196078431374,-214.50980392156862,252.01960784313727,-75.27,-64.43,-130.69
3872.3,-156.49019607843138,95.49019607843137,-144.49019607843138,-59.2,-66.74,-97.93
3872.35,-93.49019607843137,-198.50980392156862,-236.49019607843138,-18.78,-63.83,-58.94
3872.4,34.509803921568626,-312.5098039215686,-283.4901960784314,-42.82,-56.17,-22.37
3872.45,81.50980392156863,-280.5098039215686,-160.49019607843138,-33.02,-50.64,-1.16
3872.5,81.50980392156863,-198.50980392156862,-236.49019607843138,-42.09,-0.2,-26.53
3872.55,65.50980392156863,-198.50980392156862,282.01960784313724,4.07,12.88,-14.42
3872.6,177.50980392156862,-182.50980392156862,221.01960784313727,37.11,-8.18,27.08
3872.65,97.50980392156863,313.0,-52.490196078431374,61.89,-23.51,52.1
3872.7,-108.49019607843137,-67.50980392156863,-52.490196078431374,40.36,-47.28,53.68
3872.75,247.01960784313727,84.0,9.509803921568627,29.48,-43.36,68.38
3872.8,247.01960784313727,166.0,-36.490196078431374,11.59,-15.88,52.17
3872.85,136.01960784313727,297.0,-190.49019607843138,19.22,8.01,32.08
3872.9,-204.49019607843138,-100.50980392156863,-144.49019607843138,36.13,25.44,17.91
3872.95,-13.490196078431373,-67.50980392156863,-221.49019607843138,75.47,-7.17,29.84
3873.0,-77.49019607843137,313.0,-129.49019607843138,32.38,-34.05,42.06
3873.05,-252.49019607843138,101.0,70.50980392156863,-8.84,-20.68,46.43
3873.1,-236.49019607843138,232.0,-175.49019607843138,48.03,-26.21,58.33
3873.15,-124.49019607843137,-231.50980392156862,163.50980392156862,60.03,-30.37,51.19
3873.2,-77.49019607843137,-198.50980392156862,224.50980392156862,44.67,-11.75,22.42
3873.25,-61.490196078431374,-280.5098039215686,-36.490196078431374,12.54,2.1,23.16
3873.3,-61.490196078431374,-312.5098039215686,-113.49019607843137,-28.44,8.08,15.28
3873.35,-156.49019607843138,281.0,101.50980392156863,-69.53,18.55,8.6
3873.4,-124.49019607843137,297.0,116.50980392156863,-75.65,18.51,-3.33
3873.45,-140.49019607843138,-296.5098039215686,-6.490196078431373,-120.87,41.47,-7.91
3873.5,-220.49019607843138,297.0,-52.490196078431374,-119.47,74.79,-33.15
3873.55,88.01960784313725,297.0,-175.49019607843138,3.79,103.0,-86.63
3873.6,231.01960784313727,-198.50980392156862,55.509803921568626,42.81,128.13,-110.53
3873.65,-29.49019607843137,-116.50980392156863,55.509803921568626,65.07,106.5,-164.33
3873.7,247.01960784313727,281.0,-21.49019607843137,-152.37,110.56,-156.42
3873.75,57.01960784313726,281.0,101.50980392156863,-205.57,70.94,-136.36
3873.8,247.01960784313727,-198.50980392156862,193.50980392156862,-204.0,35.87,-133.39
3873.85,295.01960784313724,-100.50980392156863,301.5098039215686,-67.29,-3.28,-128.59
3873.9,263.01960784313724,-116.50980392156863,162.50980392156862,77.92,-32.33,-112.91
3873.95,279.01960784313724,-165.50980392156862,-6.490196078431373,48.13,-38.53,-117.81
3874.0,311.01960784313724,-149.50980392156862,-33.0,-77.82,-23.51,-122.92
3874.05,-299.4901960784314,-165.50980392156862,-49.0,-121.29,-17.21,-98.56
3874.1,-315.4901960784314,-182.50980392156862,-95.0,-65.08,-26.0,-67.66
3874.15,279.01960784313724,-247.50980392156862,-126.0,-11.78,-37.06,-45.05
3874.2,216.01960784313727,-296.5098039215686,-233.0,-6.6,-36.64,-20.3
3874.25,72.01960784313725,313.0,-218.0,-5.02,-30.48,-4.59
3874.3,136.01960784313727,215.0,55.509803921568626,-22.24,-19.24,10.21
3874.35,-77.49019607843137,166.0,-36.490196078431374,10.33,-25.44,30.61
3874.4,-77.49019607843137,199.0,-313.4901960784314,55.2,-29.88,49.41
3874.45,-252.49019607843138,-62.0,-313.4901960784314,83.41,-37.93,37.68
3874.5,-156.49019607843138,-94.0,-206.49019607843138,92.83,-20.99,2.09
3874.55,-45.490196078431374,35.0,-129.49019607843138,90.73,11.48,41.15
3874.6,-108.49019607843137,248.0,-21.49019607843137,183.23,5.74,68.66
3874.65,-156.49019607843138,281.0,86.50980392156863,99.2,62.33,48.85
3874.7,-188.49019607843138,-312.5098039215686,147.50980392156862,-15.52,92.5,54.31
3874.75,-188.49019607843138,-247.50980392156862,116.50980392156863,-17.48,77.56,71.77
3874.8,-124.49019607843137,-247.50980392156862,70.50980392156863,16.74,53.41,85.39
3874.85,-93.49019607843137,-280.5098039215686,86.50980392156863,44.88,31.99,88.5
3874.9,-93.49019607843137,-231.50980392156862,55.509803921568626,55.9,6.12,84.55
3874.95,-77.49019607843137,-214.50980392156862,70.50980392156863,62.66,-24.46,85.35
3875.0,-252.49019607843138,-280.5098039215686,116.50980392156863,74.56,-49.52,94.8
3875.05,-101.98039215686275,-67.50980392156863,-98.49019607843137,82.54,-65.86,104.04
3875.1,-45.490196078431374,-51.509803921568626,193.50980392156862,73.19,-72.69,111.92
3875.15,-220.49019607843138,-133.50980392156862,-264.0,51.04,-73.32,118.08
3875.2,57.01960784313726,-198.50980392156862,-280.0,32.59,-69.96,97.64
3875.25,-6.980392156862745,-133.50980392156862,-218.0,-5.44,-55.36,86.47
3875.3,57.01960784313726,-133.50980392156862,-126.0,46.94,-74.05,80.38
3875.35,152.01960784313727,-182.50980392156862,-64.0,144.8,-78.04,79.19
3875.4,152.01960784313727,-198.50980392156862,-95.0,73.3,-50.22,38.49
3875.45,231.01960784313727,-263.5098039215686,-49.0,11.91,-34.96,-10.29
3875.5,295.01960784313724,297.0,27.0,-1.14,-24.88,-42.53
3875.55,-252.49019607843138,-296.5098039215686,-49.0,35.88,-24.95,-65.1
3875.6,-252.49019607843138,-280.5098039215686,-95.0,56.46,-31.7,-76.13
3875.65,295.01960784313724,-296.5098039215686,-187.0,67.98,-38.49,-74.9
3875.7,279.01960784313724,297.0,209.50980392156862,76.48,-35.03,-59.29
3875.75,-267.4901960784314,133.0,-83.49019607843137,61.78,-22.36,-30.03
3875.8,216.01960784313727,-13.0,-37.490196078431374,28.92,-9.55,5.83
3875.85,-172.49019607843138,35.0,313.01960784313724,32.35,-8.04,40.66
3875.9,18.50980392156863,150.0,313.01960784313724,51.98,-11.61,66.14
3875.95,-124.49019607843137,52.0,-129.49019607843138,62.45,-33.49,43.14
3876.0,231.01960784313727,183.0,24.50980392156863,60.1,-3.56,55.29
3876.05,263.01960784313724,-214.50980392156862,-6.490196078431373,136.37,-10.91,102.33
3876.1,-188.49019607843138,-214.50980392156862,116.50980392156863,161.6,-2.13,118.08
3876.15,-220.49019607843138,-312.5098039215686,147.50980392156862,90.73,23.94,116.64
3876.2,-172.49019607843138,313.0,209.50980392156862,78.69,20.93,129.14
3876.25,-140.49019607843138,-280.5098039215686,178.50980392156862,61.43,12.21,151.43
3876.3,-108.49019607843137,-312.5098039215686,116.50980392156863,54.29,-5.07,169.25
3876.35,-93.49019607843137,281.0,55.509803921568626,64.76,-22.29,169.81
3876.4,-93.49019607843137,248.0,55.509803921568626,44.46,-44.62,155.04
3876.45,-108.49019607843137,264.0,-36.490196078431374,28.25,-67.89,122.07
3876.5,-45.490196078431374,264.0,9.509803921568627,44.07,-93.76,92.84
3876.55,-77.49019607843137,297.0,101.50980392156863,80.05,-111.85,70.9
3876.6,-315.4901960784314,-280.5098039215686,116.50980392156863,106.2,-108.11,54.73
3876.65,-315.4901960784314,-116.50980392156863,39.509803921568626,100.95,-67.26,54.48
3876.7,-77.49019607843137,-116.50980392156863,209.50980392156862,32.56,-51.93,35.48
3876.75,-124.49019607843137,-296.5098039215686,-295.0,-36.91,-40.59,-6.13
3876.8,263.01960784313724,-263.5098039215686,-310.0,-21.82,-34.54,-31.08
3876.85,152.01960784313727,-182.50980392156862,-233.0,34.27,-31.74,-62.13
3876.9,216.01960784313727,-182.50980392156862,-203.0,-25.32,-10.32,-112.14
3876.95,311.01960784313724,-263.5098039215686,-156.0,-59.48,1.99,-118.06
3877.0,-315.4901960784314,-116.50980392156863,-264.0,52.68,7.45,-84.14
3877.05,-315.4901960784314,199.0,-233.0,-31.9,0.52,-50.3
3877.1,-283.4901960784314,101.0,316.5098039215686,-6.49,7.17,-29.23
3877.15,-236.49019607843138,215.0,163.50980392156862,15.72,10.32,-20.16
3877.2,-172.49019607843138,183.0,132.50980392156862,82.5,6.58,-13.72
3877.25,-140.49019607843138,232.0,-21.49019607843137,53.45,8.54,-6.2
3877.3,-172.49019607843138,117.0,-6.490196078431373,-20.74,13.54,4.36
3877.35,-252.49019607843138,35.0,55.509803921568626,-52.31,14.24,12.76
3877.4,279.01960784313724,150.0,55.509803921568626,-63.33,15.12,20.71
3877.45,-229.98039215686273,-280.5098039215686,70.50980392156863,-43.73,8.47,17.45
3877.5,-220.49019607843138,-247.50980392156862,101.50980392156863,3.44,-10.04,-3.57
3877.55,-45.490196078431374,-263.5098039215686,147.50980392156862,-21.51,-29.53,-34.48
3877.6,-220.49019607843138,297.0,-310.0,-153.53,-26.17,0.16
3877.65,247.01960784313727,248.0,-249.0,-122.27,-24.04,61.17
3877.7,-77.49019607843137,-247.50980392156862,-310.0,-21.3,-11.23,87.38
3877.75,49.509803921568626,-198.50980392156862,-310.0,3.75,-7.52,91.34
3877.8,-45.490196078431374,-312.5098039215686,255.50980392156862,-14.93,-14.76,86.68
3877.85,-93.49019607843137,264.0,209.50980392156862,2.7,-25.61,98.09
3877.9,-108.49019607843137,281.0,55.509803921568626,35.29,-37.69,114.72
3877.95,-108.49019607843137,313.0,-113.49019607843137,12.5,-44.83,117.87
3878.0,-156.49019607843138,166.0,-98.49019607843137,-13.56,-40.0,105.27
3878.05,-124.49019607843137,166.0,-113.49019607843137,-9.47,-32.19,82.62
3878.1,-124.49019607843137,248.0,-98.49019607843137,3.72,-32.75,39.43
3878.15,-204.49019607843138,248.0,9.509803921568627,13.06,-37.02,6.57
3878.2,-38.98039215686274,-214.50980392156862,-83.49019607843137,77.64,-39.37,-28.46
3878.25,-93.49019607843137,-67.50980392156863,39.509803921568626,100.0,-24.21,-64.47
3878.3,-29.49019607843137,-198.50980392156862,270.5098039215686,65.21,0.8,-94.29
3878.35,216.01960784313727,-263.5098039215686,255.50980392156862,2.56,13.65,-130.17
3878.4,136.01960784313727,-280.5098039215686,270.5098039215686,10.79,39.62,-127.96
3878.45,-299.4901960784314,-247.50980392156862,-249.0,26.96,29.33,-83.9
3878.5,-283.4901960784314,-247.50980392156862,-264.0,30.28,30.62,-49.56
3878.55,-283.4901960784314,-312.5098039215686,-203.0,34.24,47.49,-42.21
3878.6,-188.49019607843138,264.0,-264.0,39.17,56.73,-24.33
3878.65,-156.49019607843138,264.0,-249.0,20.48,28.1,11.4
3878.7,-204.49019607843138,215.0,-310.0,13.31,-1.88,25.22
3878.75,-188.49019607843138,199.0,270.5098039215686,13.62,-11.02,9.65
3878.8,-140.49019607843138,215.0,132.50980392156862,-19.69,-20.36,-7.04
3878.85,168.01960784313727,166.0,147.50980392156862,-42.23,-31.0,-9.31
3878.9,295.01960784313724,199.0,70.50980392156863,22.93,-27.92,-7.11
3878.95,-61.490196078431374,313.0,-98.49019607843137,28.32,-13.78,-8.54
3879.0,-140.49019607843138,264.0,-98.49019607843137,-48.39,0.59,-10.4
3879.05,-315.4901960784314,101.0,86.50980392156863,-58.61,5.14,-11.03
3879.1,-267.4901960784314,232.0,39.509803921568626,-1.66,-18.05,-51.77
3879.15,-93.49019607843137,313.0,39.509803921568626,7.67,5.74,-49.77
3879.2,-108.49019607843137,281.0,101.50980392156863,3.72,1.82,12.59
3879.25,-124.49019607843137,297.0,86.50980392156863,16.42,6.79,57.95
3879.3,-124.49019607843137,-312.5098039215686,70.50980392156863,5.75,27.44,65.89
3879.35,-156.49019607843138,297.0,39.509803921568626,-19.06,35.94,86.75
3879.4,-172.49019607843138,281.0,55.509803921568626,-26.13,19.18,108.0
3879.45,-172.49019607843138,297.0,70.50980392156863,-22.24,6.05,119.76
3879.5,-172.49019607843138,264.0,70.50980392156863,-7.58,-9.09,113.28
3879.55,-124.49019607843137,281.0,86.50980392156863,12.85,-24.77,90.04
3879.6,-61.490196078431374,232.0,147.50980392156862,26.05,-31.42,56.06
3879.65,216.01960784313727,-312.5098039215686,39.509803921568626,54.85,-30.97,24.45
3879.7,-299.4901960784314,-182.50980392156862,24.50980392156863,56.57,-26.03,0.2
3879.75,-156.49019607843138,-247.50980392156862,178.50980392156862,16.84,-20.85,-25.41
3879.8,-267.4901960784314,248.0,193.50980392156862,20.06,-16.13,-64.23
3879.85,311.01960784313724,297.0,270.5098039215686,43.69,-26.03,-65.0
3879.9,311.01960784313724,313.0,301.5098039215686,51.77,-31.63,-46.38
3879.95,-299.4901960784314,-263.5098039215686,301.5098039215686,44.56,-11.19,-43.23
3880.0,-267.4901960784314,-296.5098039215686,-98.49019607843137,-48.39,15.08,-44.84
3880.05,-252.49019607843138,313.0,86.50980392156863,-58.61,12.95,-25.45
3880.1,-283.4901960784314,248.0,39.509803921568626,-1.66,0.94,-26.85
3880.15,-299.4901960784314,264.0,39.509803921568626,7.67,-3.42,-41.62
3880.2,-188.49019607843138,248.0,101.50980392156863,3.72,-8.29,-43.23
3880.25,-93.49019607843137,281.0,86.50980392156863,16.42,-9.51,-31.4
3880.3,-140.49019607843138,232.0,70.50980392156863,5.75,0.28,-12.11
3880.35,-220.49019607843138,199.0,39.509803921568626,-19.06,13.54,11.19
3880.4,-267.4901960784314,150.0,55.509803921568626,-26.13,15.96,31.56
3880.45,-299.4901960784314,199.0,70.50980392156863,-22.24,14.31,45.56
3880.5,-283.4901960784314,281.0,70.50980392156863,-7.58,5.6,45.63
3880.55,311.01960784313724,281.0,86.50980392156863,12.85,-26.56,-6.58
3880.6,25.019607843137255,297.0,147.50980392156862,26.05,-18.54,-28.7
3880.65,-204.49019607843138,-247.50980392156862,39.509803921568626,54.85,-10.35,6.74
3880.7,2.5098039215686274,-182.50980392156862,24.50980392156863,56.57,-4.05,58.65
3880.75,-188.49019607843138,313.0,178.50980392156862,16.84,10.22,86.54
3880.8,-267.4901960784314,150.0,193.50980392156862,20.06,3.92,72.44
3880.85,-140.49019607843138,281.0,270.5098039215686,43.69,-3.28,35.79
3880.9,-29.49019607843137,-263.5098039215686,301.5098039215686,51.77,-5.31,22.63
3880.95,18.50980392156863,199.0,301.5098039215686,44.56,-5.7,36.49
3881.0,-267.4901960784314,-296.5098039215686,-310.0,25.77,-5.21,57.25
3881.05,-252.49019607843138,313.0,-310.0,-2.4,-12.24,64.63
3881.1,-283.4901960784314,248.0,-310.0,-9.96,-28.38,41.78
3881.15,-299.4901960784314,264.0,-310.0,13.24,-50.64,7.09
3881.2,-188.49019607843138,248.0,-310.0,52.79,-62.33,-19.39
3881.25,-93.49019607843137,281.0,193.50980392156862,68.19,-59.77,-43.37
3881.3,-140.49019607843138,232.0,132.50980392156862,39.49,-41.15,-62.48
3881.35,-220.49019607843138,199.0,39.509803921568626,-2.12,-19.8,-66.22
3881.4,-267.4901960784314,150.0,24.50980392156863,-25.6,-1.32,-69.65
3881.45,-299.4901960784314,199.0,55.509803921568626,-24.24,16.97,-70.88
3881.5,-283.4901960784314,281.0,-6.490196078431373,-57.98,36.47,-79.24
3881.55,311.01960784313724,281.0,70.50980392156863,-130.11,60.02,-55.34
3881.6,25.019607843137255,297.0,162.50980392156862,-75.2,39.34,1.63
3881.65,-204.49019607843138,-247.50980392156862,193.50980392156862,2.11,34.51,30.4
3881.7,2.5098039215686274,-182.50980392156862,193.50980392156862,-37.4,56.03,28.02
3881.75,-188.49019607843138,313.0,239.50980392156862,-119.75,49.35,31.03
3881.8,-267.4901960784314,150.0,-279.0,-71.52,4.16,42.86
3881.85,-140.49019607843138,281.0,255.50980392156862,26.08,-27.71,39.01
3881.9,-29.49019607843137,-263.5098039215686,86.50980392156863,59.75,-42.69,9.96
3881.95,18.50980392156863,199.0,86.50980392156863,25.98,-45.11,-26.57
3882.0,-45.490196078431374,68.0,55.509803921568626,45.23,-48.82,-52.29
3882.05,-108.49019607843137,183.0,-67.49019607843137,63.88,-40.24,-52.61
3882.1,-172.49019607843138,232.0,-113.49019607843137,50.41,-26.8,-46.06
3882.15,-204.49019607843138,215.0,-67.49019607843137,31.16,-9.9,-34.41
3882.2,-220.49019607843138,232.0,-36.490196078431374,26.19,1.89,-12.01
3882.25,-188.49019607843138,313.0,9.509803921568627,27.48,6.12,9.54
3882.3,-140.49019607843138,-312.5098039215686,70.50980392156863,28.57,-9.06,6.85
3882.35,-188.49019607843138,-296.5098039215686,116.50980392156863,41.87,4.48,8.46
3882.4,57.01960784313726,-182.50980392156862,-21.49019607843137,67.31,10.53,62.11
3882.45,-283.4901960784314,-100.50980392156863,86.50980392156863,88.94,12.42,106.28
3882.5,-93.49019607843137,-280.5098039215686,270.5098039215686,57.2,36.71,99.39
3882.55,-283.4901960784314,313.0,239.50980392156862,3.68,49.87,79.23
3882.6,152.01960784313727,281.0,301.5098039215686,-15.84,39.48,79.54
3882.65,200.01960784313727,-296.5098039215686,-279.0,-4.67,7.7,94.03
3882.7,-299.4901960784314,-296.5098039215686,-172.0,46.42,-24.95,102.47
3882.75,-252.49019607843138,-247.50980392156862,-172.0,73.44,-44.69,92.77
3882.8,-220.49019607843138,-280.5098039215686,-172.0,39.56,-44.09,68.62
3882.85,-236.49019607843138,248.0,-203.0,2.28,-45.42,40.97
3882.9,-236.49019607843138,199.0,-233.0,-4.64,-52.04,9.37
3882.95,-252.49019607843138,215.0,316.5098039215686,20.38,-52.11,-19.99
3883.0,-283.4901960784314,248.0,147.50980392156862,46.03,-48.82,-68.11
3883.05,-299.4901960784314,232.0,55.509803921568626,-7.16,-23.48,-97.16
3883.1,57.01960784313726,133.0,9.509803921568627,-68.69,1.82,-80.85
3883.15,216.01960784313727,117.0,-67.49019607843137,-17.69,-0.9,-63.21
3883.2,-45.490196078431374,232.0,-113.49019607843137,-22.7,24.18,-68.71
3883.25,-188.49019607843138,232.0,9.509803921568627,-51.15,29.29,-61.43
3883.3,-267.4901960784314,232.0,86.50980392156863,-26.3,21.03,-43.93
3883.35,-172.49019607843138,-312.5098039215686,70.50980392156863,-10.06,23.31,-31.33
3883.4,-124.49019607843137,-231.50980392156862,70.50980392156863,-62.46,33.6,-25.06
3883.45,-124.49019607843137,248.0,147.50980392156862,-29.38,17.53,-10.33
3883.5,-45.490196078431374,-231.50980392156862,147.50980392156862,37.63,7.87,10.52
3883.55,-77.49019607843137,-165.50980392156862,86.50980392156863,32.49,7.98,23.86
3883.6,-61.490196078431374,-247.50980392156862,101.50980392156863,7.43,5.28,32.15
3883.65,-108.49019607843137,313.0,178.50980392156862,17.19,-10.25,43.04
3883.7,-93.49019607843137,-280.5098039215686,163.50980392156862,55.69,-31.14,51.47
3883.75,-77.49019607843137,-198.50980392156862,147.50980392156862,88.7,-66.81,23.61
3883.8,-140.49019607843138,-214.50980392156862,224.50980392156862,146.45,-56.62,11.82
3883.85,57.01960784313726,-100.50980392156863,193.50980392156862,216.31,-42.24,82.03
3883.9,279.01960784313724,128.49019607843138,86.50980392156863,194.22,-15.15,127.74
3883.95,295.01960784313724,-133.50980392156862,-172.0,134.65,26.28,152.45
3884.0,57.01960784313726,-214.50980392156862,-295.0,65.14,43.05,178.35
3884.05,-54.98039215686274,-247.50980392156862,-310.0,31.37,31.99,180.97
3884.1,88.01960784313725,-263.5098039215686,-156.0,20.34,23.9,174.43
3884.15,88.01960784313725,-280.5098039215686,-172.0,25.1,2.17,160.64
3884.2,231.01960784313727,313.0,-126.0,21.74,-23.37,135.02
3884.25,-315.4901960784314,264.0,-79.0,23.77,-53.79,87.49
3884.3,-236.49019607843138,264.0,-110.0,33.64,-66.04,43.0
3884.35,-204.49019607843138,215.0,-187.0,38.79,-65.06,-0.11
3884.4,-172.49019607843138,199.0,255.50980392156862,35.46,-64.01,-46.8
3884.45,-188.49019607843138,150.0,162.50980392156862,-10.55,-74.19,-128.63
3884.5,263.01960784313724,19.0,70.50980392156863,-20.14,-62.54,-138.01
3884.55,263.01960784313724,133.0,-175.49019607843138,51.74,-55.05,-124.71
3884.6,-61.490196078431374,232.0,-283.4901960784314,-30.08,0.56,-120.89
3884.65,-315.4901960784314,150.0,-160.49019607843138,-125.6,36.26,-87.29
3884.7,200.01960784313727,166.0,24.50980392156863,-93.54,34.09,-43.33
3884.75,-236.49019607843138,-214.50980392156862,101.50980392156863,-17.66,15.29,-21.53
3884.8,-172.49019607843138,-149.50980392156862,162.50980392156862,21.85,-4.68,-26.71
3884.85,-108.49019607843137,-182.50980392156862,163.50980392156862,7.64,-4.09,-24.05
3884.9,-77.49019607843137,264.0,255.50980392156862,7.74,-4.72,-6.72
3884.95,-61.490196078431374,-231.50980392156862,101.50980392156863,41.17,-17.39,19.59
3885.0,-236.49019607843138,-214.50980392156862,132.50980392156862,47.22,-26.17,42.69
3885.05,49.509803921568626,-198.50980392156862,70.50980392156863,69.97,-51.62,40.1
3885.1,208.50980392156862,-280.5098039215686,116.50980392156863,105.18,-29.08,38.56
3885.15,-243.0,-84.50980392156863,-21.49019607843137,145.05,-22.71,82.59
3885.2,-227.0,-67.50980392156863,116.50980392156863,180.64,-15.6,113.49
3885.25,-147.0,-182.50980392156862,-279.0,170.11,13.3,100.33
3885.3,-290.0,-296.5098039215686,-310.0,145.54,37.27,83.67
3885.35,256.5098039215686,-247.50980392156862,255.50980392156862,98.57,55.58,82.66
3885.4,-290.0,-263.5098039215686,-233.0,46.8,55.4,97.6
3885.45,-116.0,-296.5098039215686,-110.0,7.39,30.66,107.44
3885.5,-52.0,-280.5098039215686,-64.0,50.72,-3.46,105.48
3885.55,-68.0,-182.50980392156862,-49.0,75.78,-39.51,106.21
3885.6,-100.0,-214.50980392156862,43.0,52.05,-77.83,122.21
3885.65,-243.0,-247.50980392156862,73.0,12.43,-109.23,165.71
3885.7,320.5098039215686,-35.509803921568626,-33.0,-110.48,-118.64,192.63
3885.75,208.50980392156862,-67.50980392156863,58.0,-281.8,-92.85,175.44
3885.8,-108.49019607843137,-296.5098039215686,-249.0,-227.38,-73.11,135.61
3885.85,88.01960784313725,-35.509803921568626,116.50980392156863,-143.66,-61.14,89.73
3885.9,-22.980392156862745,79.49019607843137,86.50980392156863,-154.68,-58.9,25.05
3885.95,104.01960784313725,177.49019607843138,239.50980392156862,10.4,-107.65,-2.84
3886.0,263.01960784313724,-89.01960784313725,-64.0,37.42,-155.29,-5.92
3886.05,279.01960784313724,-286.01960784313724,196.0,39.52,-124.21,-0.63
3886.1,-188.49019607843138,128.49019607843138,120.0,-6.18,-47.07,14.09
3886.15,-172.49019607843138,30.49019607843137,58.0,-81.85,16.45,8.56
3886.2,-299.4901960784314,30.49019607843137,150.0,-66.31,28.84,-9.21
3886.25,231.01960784313727,160.49019607843138,120.0,2.56,-14.55,-21.88
3886.3,200.01960784313727,307.4901960784314,-246.50980392156862,51.14,-96.42,-19.57
3886.35,200.01960784313727,-269.01960784313724,-30.50980392156863,24.09,-80.49,-0.39
3886.4,-54.98039215686274,242.49019607843138,-307.5098039215686,-59.83,-16.93,23.33
3886.45,247.01960784313727,30.49019607843137,227.0,-37.71,15.33,30.86
3886.5,-13.490196078431373,258.4901960784314,243.0,-21.33,27.33,12.34
3886.55,-299.4901960784314,242.49019607843138,181.0,46.87,47.42,-44.21
3886.6,279.01960784313724,177.49019607843138,227.0,152.36,47.56,-110.92
3886.65,-108.49019607843137,111.49019607843137,212.0,-211.9,-23.23,-172.13
3886.7,2.5098039215686274,128.49019607843138,58.0,-98.33,-150.98,-201.81
3886.75,2.5098039215686274,128.49019607843138,-307.5098039215686,-250.12,-211.95,-193.97
3886.8,-29.49019607843137,-182.50980392156862,304.0,299.61,-183.74,-164.15
3886.85,-188.49019607843138,-280.5098039215686,-80.0,250.54,-118.5,-106.89
3886.9,-299.4901960784314,-2.5098039215686274,163.50980392156862,15.41,-39.23,-31.96
3886.95,295.01960784313724,281.0,-187.0,-235.11,-6.12,44.65
3887.0,311.01960784313724,-94.0,-310.0,-191.22,5.28,58.02
3887.05,-188.49019607843138,-312.5098039215686,255.50980392156862,61.78,-17.18,44.33
3887.1,-61.490196078431374,144.49019607843138,101.50980392156863,211.09,-20.89,41.11
3887.15,-29.49019607843137,-51.509803921568626,39.509803921568626,150.47,3.67,31.42
3887.2,-315.4901960784314,248.0,193.50980392156862,-4.6,56.63,20.29
3887.25,-236.49019607843138,68.0,255.50980392156862,-48.63,87.5,22.46
3887.3,-29.49019607843137,166.0,255.50980392156862,-69.11,96.14,30.79
3887.35,72.01960784313725,248.0,270.5098039215686,-108.48,95.93,32.99
3887.4,88.01960784313725,248.0,-249.0,-89.83,65.34,71.28
3887.45,168.01960784313727,-312.5098039215686,301.5098039215686,42.36,29.08,85.84
3887.5,104.01960784313725,-296.5098039215686,224.50980392156862,40.78,35.52,52.03
3887.55,120.01960784313725,215.0,-295.0,-43.56,33.84,6.32
3887.6,136.01960784313727,19.0,-233.0,-37.82,8.89,-11.48
3887.65,231.01960784313727,117.0,239.50980392156862,27.83,-28.83,-32.45
3887.7,-236.49019607843138,183.0,209.50980392156862,32.28,-41.64,-84.39
3887.75,-124.49019607843137,133.0,86.50980392156863,1.27,-41.5,-136.26
3887.8,-13.490196078431373,52.0,24.50980392156863,18.52,-40.56,-168.53
3887.85,2.5098039215686274,166.0,-6.490196078431373,0.6,-31.77,-158.9
3887.9,-124.49019607843137,199.0,-37.490196078431374,-41.28,-8.5,-113.37
3887.95,-236.49019607843138,215.0,-6.490196078431373,-46.85,8.99,-66.19
3888.0,200.01960784313727,52.0,9.509803921568627,-28.93,12.56,-23.0
3888.05,-276.98039215686276,-247.50980392156862,39.509803921568626,-24.41,7.59,-1.26
3888.1,263.01960784313724,-84.50980392156863,55.509803921568626,-10.03,-4.47,-3.57
3888.15,-220.49019607843138,-198.50980392156862,101.50980392156863,16.7,0.94,12.8
3888.2,136.01960784313727,-296.5098039215686,86.50980392156863,52.58,-4.61,68.55
3888.25,-283.4901960784314,-247.50980392156862,86.50980392156863,111.27,-12.38,119.37
3888.3,-61.490196078431374,-165.50980392156862,163.50980392156862,81.8,15.64,126.62
3888.35,-61.490196078431374,-214.50980392156862,316.5098039215686,43.16,17.18,114.58
3888.4,-61.490196078431374,-312.5098039215686,316.5098039215686,93.07,-2.9,113.7
3888.45,-93.49019607843137,-263.5098039215686,-295.0,130.17,3.78,139.81
3888.5,-77.49019607843137,-247.50980392156862,-295.0,89.12,18.72,167.11
3888.55,-156.49019607843138,264.0,-172.0,-4.18,22.57,171.24
3888.6,-220.49019607843138,101.0,-156.0,-35.75,14.73,146.15
3888.65,-172.49019607843138,101.0,-218.0,-19.51,6.82,102.85
3888.7,-124.49019607843137,199.0,270.5098039215686,-10.2,-2.23,59.87
3888.75,-188.49019607843138,281.0,193.50980392156862,-3.2,-14.48,8.04
3888.8,57.01960784313726,-116.50980392156863,132.50980392156862,31.26,-16.23,-45.54
3888.85,-252.49019607843138,-51.509803921568626,-98.49019607843137,6.55,3.92,-110.22
3888.9,-220.49019607843138,-247.50980392156862,-144.49019607843138,-70.68,27.54,-164.96
3888.95,200.01960784313727,-280.5098039215686,-52.490196078431374,-117.34,26.39,-208.5
3889.0,200.01960784313727,313.0,116.50980392156863,-110.37,45.15,-215.22
3889.05,216.01960784313727,-296.5098039215686,147.50980392156862,-49.37,46.97,-170.94
3889.1,247.01960784313727,-263.5098039215686,55.509803921568626,-1.35,21.49,-129.89
3889.15,-315.4901960784314,281.0,-295.0,-88.6,29.85,-91.18
3889.2,-236.49019607843138,232.0,-187.0,-119.82,16.9,-62.65
3889.25,-252.49019607843138,183.0,-233.0,-63.68,-4.47,-40.5
3889.3,-220.49019607843138,183.0,-264.0,-24.48,-17.84,-34.13
3889.35,-236.49019607843138,68.0,301.5098039215686,-56.19,-27.01,-27.3
3889.4,-220.49019607843138,3.0,224.50980392156862,-21.37,-37.86,-5.32
3889.45,-283.4901960784314,19.0,86.50980392156863,40.68,-40.24,15.53
3889.5,25.019607843137255,166.0,-98.49019607843137,44.63,-27.33,24.35
3889.55,216.01960784313727,232.0,-190.49019607843138,5.92,-6.22,25.82
3889.6,-188.49019607843138,150.0,-160.49019607843138,-19.23,8.19,20.95
3889.65,136.01960784313727,150.0,-144.49019607843138,-11.92,7.91,3.52
3889.7,231.01960784313727,-263.5098039215686,-67.49019607843137,21.25,-16.16,-35.7
3889.75,-172.49019607843138,-182.50980392156862,9.509803921568627,74.98,2.38,-34.65
3889.8,-29.49019607843137,-198.50980392156862,-113.49019607843137,141.3,4.06,31.45
3889.85,-13.490196078431373,-231.50980392156862,70.50980392156863,127.34,21.63,82.45
3889.9,-29.49019607843137,313.0,-280.0,75.68,56.1,101.45
3889.95,-13.490196078431373,-312.5098039215686,255.50980392156862,21.01,61.53,122.31
3890.0,-124.49019607843137,-263.5098039215686,-264.0,6.55,49.59,143.73
3890.05,-204.49019607843138,-312.5098039215686,-156.0,5.96,23.13,155.67
3890.1,-220.49019607843138,281.0,-95.0,-12.76,-3.7,148.14
3890.15,-140.49019607843138,297.0,-141.0,-9.92,-24.28,116.08
3890.2,104.01960784313725,-149.50980392156862,-203.0,-10.45,-29.85,78.91
3890.25,-252.49019607843138,-214.50980392156862,-310.0,8.37,-29.85,43.07
3890.3,-156.49019607843138,-296.5098039215686,147.50980392156862,4.24,-20.15,3.42
3890.35,184.01960784313727,-247.50980392156862,24.50980392156863,-23.54,-5.03,-62.41
3890.4,184.01960784313727,-214.50980392156862,-37.490196078431374,-14.44,-7.94,-127.75
3890.45,216.01960784313727,264.0,-52.490196078431374,35.01,-9.16,-184.31
3890.5,311.01960784313724,248.0,-36.490196078431374,-22.8,1.05,-171.71
3890.55,-283.4901960784314,297.0,-129.49019607843138,-58.4,0.35,-156.87
3890.6,-252.49019607843138,297.0,132.50980392156862,-151.95,38.71,-134.16
3890.65,-236.49019607843138,215.0,224.50980392156862,-156.05,48.54,-99.37
3890.7,-252.49019607843138,166.0,286.5098039215686,-106.42,29.29,-68.36
3890.75,-188.49019607843138,150.0,316.5098039215686,-37.89,8.4,-54.53
3890.8,-188.49019607843138,117.0,316.5098039215686,-28.33,-3.7,-47.43
3890.85,-299.4901960784314,101.0,239.50980392156862,-65.12,-9.02,-26.92
3890.9,120.01960784313725,101.0,193.50980392156862,-58.22,-10.84,-10.85
3890.95,-77.49019607843137,248.0,86.50980392156863,-31.76,-15.81,1.63
3891.0,-283.4901960784314,297.0,101.50980392156863,-17.41,-24.25,12.69
3891.05,184.01960784313727,313.0,239.50980392156862,-2.5,-33.28,15.04
3891.1,-315.4901960784314,-247.50980392156862,316.5098039215686,54.68,-58.06,-22.09
3891.15,-124.49019607843137,-182.50980392156862,270.5098039215686,85.62,-21.52,-18.76
3891.2,-140.49019607843138,-133.50980392156862,209.50980392156862,80.68,-1.71,43.18
3891.25,-93.49019607843137,-280.5098039215686,86.50980392156863,79.11,1.68,89.76
3891.3,-93.49019607843137,199.0,-67.49019607843137,85.86,23.31,97.01
3891.35,-93.49019607843137,-198.50980392156862,-67.49019607843137,82.36,40.7,97.01
3891.4,-156.49019607843138,-116.50980392156863,-113.49019607843137,19.54,50.71,105.13
3891.45,-188.49019607843138,-247.50980392156862,-67.49019607843137,-11.04,46.02,113.91
3891.5,-140.49019607843138,-280.5098039215686,24.50980392156863,-12.09,34.65,116.78
3891.55,41.01960784313726,-133.50980392156862,9.509803921568627,-4.29,24.95,103.45
3891.6,-315.4901960784314,-100.50980392156863,116.50980392156863,-5.34,20.3,71.53
3891.65,-172.49019607843138,-231.50980392156862,-310.0,-23.82,14.28,36.88
3891.7,200.01960784313727,-263.5098039215686,-279.0,-9.36,7.66,-4.06
3891.75,136.01960784313727,-263.5098039215686,-264.0,0.22,4.65,-52.92
3891.8,263.01960784313724,-263.5098039215686,-187.0,-24.52,-10.39,-136.68
3891.85,279.01960784313724,313.0,-126.0,-80.34,4.09,-166.39
3891.9,311.01960784313724,-296.5098039215686,-126.0,-30.36,-3.77,-165.62
3891.95,-283.4901960784314,248.0,-156.0,-35.96,9.41,-158.45
3892.0,311.01960784313724,248.0,-187.0,-115.69,24.92,-128.66
3892.05,-283.4901960784314,215.0,-249.0,-110.65,14.8,-87.89
3892.1,-204.49019607843138,183.0,316.5098039215686,-21.4,-15.57,-68.85
3892.15,-93.49019607843137,133.0,224.50980392156862,26.12,-26.0,-68.78
3892.2,-204.49019607843138,117.0,239.50980392156862,8.83,-20.71,-57.79
3892.25,41.01960784313726,150.0,209.50980392156862,-82.48,4.23,-40.74
3892.3,-299.4901960784314,-312.5098039215686,55.509803921568626,-57.87,11.16,-4.06
3892.35,-156.49019607843138,-182.50980392156862,86.50980392156863,11.45,8.08,27.57
3892.4,-22.980392156862745,52.0,-129.49019607843138,17.68,6.61,43.63
3892.45,-315.4901960784314,-296.03921568627453,-313.4901960784314,20.48,-6.61,36.67
3892.5,-172.49019607843138,-214.50980392156862,163.50980392156862,53.52,2.38,29.91
3892.55,18.50980392156863,232.0,-295.0,67.94,11.79,94.91
3892.6,-29.49019607843137,-165.50980392156862,-218.0,104.41,1.29,144.61
3892.65,-45.490196078431374,-280.5098039215686,-218.0,103.47,5.07,142.19
3892.7,-29.49019607843137,-280.5098039215686,-110.0,85.51,4.76,129.17
3892.75,-29.49019607843137,160.49019607843138,132.50980392156862,81.87,-2.02,124.06
3892.8,-13.490196078431373,13.490196078431373,270.5098039215686,48.2,-8.88,123.99
3892.85,-93.49019607843137,-116.50980392156863,-141.0,49.36,-18.12,121.47
3892.9,-267.4901960784314,258.4901960784314,-233.0,23.91,-33.31,113.6
3892.95,-188.49019607843138,-247.50980392156862,150.0,17.05,-47.1,99.11
3893.0,-156.49019607843138,-35.509803921568626,27.0,-2.29,-58.41,73.87
3893.05,-93.49019607843137,-231.50980392156862,89.0,89.64,-71.92,28.48
3893.1,-108.49019607843137,-318.01960784313724,150.0,43.83,-81.65,-7.88
3893.15,-29.49019607843137,-2.5098039215686274,181.0,101.09,-97.61,-72.31
3893.2,49.509803921568626,13.490196078431373,181.0,54.5,-85.25,-137.34
3893.25,-140.49019607843138,-84.50980392156863,150.0,74.73,-65.3,-120.09
3893.3,-204.49019607843138,30.49019607843137,58.0,90.31,-62.64,-74.27
3893.35,-283.4901960784314,30.49019607843137,43.0,64.13,66.95,106.84
3893.4,-283.4901960784314,-133.50980392156862,58.0,79.46,-17.88,68.94
3893.45,-172.49019607843138,13.490196078431373,196.0,72.25,-7.27,82.06
3893.5,-45.490196078431374,-2.5098039215686274,104.0,62.27,-22.39,71.18
3893.55,-61.490196078431374,-51.509803921568626,104.0,134.69,-55.82,46.54
3893.6,-108.49019607843137,79.49019607843137,58.0,91.95,-63.73,39.36
3893.65,-188.49019607843138,-133.50980392156862,43.0,110.4,-74.79,37.05
3893.7,263.01960784313724,-67.50980392156863,-203.0,34.45,-45.42,43.28
3893.75,295.01960784313724,297.0,-249.0,31.75,-74.33,56.44
3893.8,168.01960784313727,-247.50980392156862,316.5098039215686,22.9,-89.77,24.07
3893.85,200.01960784313727,-247.50980392156862,-295.0,49.92,-115.39,30.82
3893.9,-315.4901960784314,13.490196078431373,316.5098039215686,87.12,-135.51,40.87
3893.95,-108.49019607843137,-133.50980392156862,-64.0,75.26,-128.13,22.98
3894.0,-29.49019607843137,-35.509803921568626,27.0,-2.29,-105.52,21.58
3894.05,-124.49019607843137,-231.50980392156862,89.0,89.64,-95.96,16.37
3894.1,-124.49019607843137,-318.01960784313724,150.0,43.83,-88.61,-0.35
3894.15,-140.49019607843138,-2.5098039215686274,181.0,101.09,-98.2,-18.1
3894.2,-61.490196078431374,13.490196078431373,181.0,54.5,-71.67,-23.1
3894.25,-140.49019607843138,-84.50980392156863,150.0,74.73,-51.83,-24.85
3894.3,-140.49019607843138,30.49019607843137,58.0,90.31,-40.66,-18.76
3894.35,-172.49019607843138,30.49019607843137,43.0,64.13,-32.12,-7.11
3894.4,-267.4901960784314,-133.50980392156862,58.0,79.46,-28.97,-6.02
3894.45,-267.4901960784314,13.490196078431373,196.0,72.25,-20.43,-14.07
3894.5,152.01960784313727,-2.5098039215686274,104.0,62.27,-21.76,-13.51
3894.55,-54.98039215686274,-51.509803921568626,104.0,134.69,-17.14,-17.4
3894.6,184.01960784313727,79.49019607843137,58.0,91.95,-10.84,-27.06
3894.65,-124.49019607843137,-133.50980392156862,43.0,110.4,-10.63,-6.76
3894.7,-267.4901960784314,-67.50980392156863,-203.0,34.45,-12.77,21.2
3894.75,168.01960784313727,297.0,-249.0,31.75,-13.54,27.5
3894.8,120.01960784313725,-247.50980392156862,316.5098039215686,22.9,-21.17,40.83
3894.85,216.01960784313727,-247.50980392156862,-295.0,49.92,-32.44,42.76
3894.9,-267.4901960784314,13.490196078431373,316.5098039215686,87.12,-26.73,25.22
3894.95,-283.4901960784314,-133.50980392156862,-64.0,75.26,-21.41,14.06
3895.0,-13.490196078431373,-263.5098039215686,-310.0,79.7,-18.65,-4.24
3895.05,97.50980392156863,-263.5098039215686,301.5098039215686,58.91,-14.76,-23.52
3895.1,97.50980392156863,248.0,116.50980392156863,52.16,-26.07,-24.4
3895.15,-188.49019607843138,133.0,-279.0,80.89,-20.54,-21.49
3895.2,263.01960784313724,-116.50980392156863,-203.0,50.86,-11.65,-29.19
3895.25,216.01960784313727,-182.50980392156862,116.50980392156863,-3.31,-25.58,-26.64
3895.3,216.01960784313727,-165.50980392156862,255.50980392156862,-17.06,-5.7,-7.35
3895.35,-188.49019607843138,264.0,270.5098039215686,1.83,-17.0,-3.82
3895.4,-188.49019607843138,-165.50980392156862,55.509803921568626,67.14,-16.62,-0.39
3895.45,65.50980392156863,281.0,178.50980392156862,32.63,-10.53,-0.95
3895.5,-188.49019607843138,183.0,193.50980392156862,-5.41,-5.1,9.61
3895.55,136.01960784313727,150.0,301.5098039215686,104.24,-12.98,21.27
3895.6,-140.49019607843138,-280.5098039215686,316.5098039215686,-16.36,-25.09,11.15
3895.65,-299.4901960784314,3.0,-95.0,-42.23,-14.76,2.44
3895.7,231.01960784313727,84.0,-126.0,-54.62,-11.79,7.62
3895.75,-86.98039215686275,-280.5098039215686,-110.0,-53.71,-9.3,28.79
3895.8,200.01960784313727,264.0,-33.0,-80.34,10.85,43.14
3895.85,-93.49019607843137,-247.50980392156862,-264.0,-53.08,12.95,49.69
3895.9,320.5098039215686,-67.50980392156863,-233.0,-23.57,17.81,45.21
3895.95,-13.490196078431373,-67.50980392156863,-126.0,-52.34,25.09,18.15
3896.0,-252.49019607843138,232.0,-126.0,-15.28,10.67,-13.58
3896.05,200.01960784313727,232.0,-141.0,-53.11,0.52,-39.27
3896.1,231.01960784313727,52.0,-3.0,-1.63,-7.48,-50.02
3896.15,-93.49019607843137,215.0,-249.0,-10.83,19.42,-36.51
3896.2,208.50980392156862,-247.50980392156862,239.50980392156862,4.1,0.1,-14.28
3896.25,-306.0,297.0,-218.0,-9.29,22.82,31.31
3896.3,-140.49019607843138,-100.50980392156863,-203.0,-10.66,10.85,28.76
3896.35,263.01960784313724,199.0,-64.0,-15.49,31.18,15.21
3896.4,-260.98039215686276,-67.50980392156863,12.0,14.11,42.45,5.24
3896.45,247.01960784313727,281.0,-249.0,47.08,23.2,-29.37
3896.5,34.509803921568626,215.0,-264.0,34.41,-3.6,-27.65
3896.55,-156.49019607843138,-100.50980392156863,-141.0,36.76,-13.29,-34.06
3896.6,136.01960784313727,46.490196078431374,-233.0,-76.32,11.34,-31.26
3896.65,311.01960784313724,183.0,239.50980392156862,-33.97,6.47,-19.78
3896.7,-315.4901960784314,-198.50980392156862,-187.0,-52.13,38.46,36.91
3896.75,-188.49019607843138,-149.50980392156862,-98.49019607843137,-112.68,-0.59,59.98
3896.8,-220.49019607843138,-198.50980392156862,-310.0,58.21,13.4,12.13
3896.85,-188.49019607843138,-198.50980392156862,178.50980392156862,72.53,-2.06,-4.2
3896.9,-156.49019607843138,-247.50980392156862,301.5098039215686,59.89,-0.06,-31.4
3896.95,-108.49019607843137,95.49019607843137,-249.0,21.25,13.33,-40.22
3897.0,-220.49019607843138,-116.50980392156863,-310.0,52.51,-17.7,-19.57
3897.05,279.01960784313724,-312.5098039215686,286.5098039215686,-32.92,21.45,5.1
3897.1,311.01960784313724,-133.50980392156862,270.5098039215686,-56.75,8.08,20.81
3897.15,216.01960784313727,-67.50980392156863,55.509803921568626,-21.93,-9.62,33.2
3897.2,200.01960784313727,-296.5098039215686,181.0,22.9,-8.6,30.54
3897.25,200.01960784313727,150.0,116.50980392156863,60.91,1.71,21.79
3897.3,-93.49019607843137,3.0,224.50980392156862,-36.94,12.91,-7.07
3897.35,-140.49019607843138,-165.50980392156862,132.50980392156862,42.11,-14.73,5.55
3897.4,-252.49019607843138,35.0,286.5098039215686,5.36,-10.53,2.89
3897.45,57.01960784313726,313.0,-310.0,14.46,-32.16,29.14
3897.5,168.01960784313727,297.0,-95.0,-71.66,-66.04,34.99
3897.55,-172.49019607843138,199.0,-187.0,31.16,-15.43,-14.7
3897.6,-236.49019607843138,215.0,27.0,-19.93,2.06,-5.99
3897.65,-252.49019607843138,-312.5098039215686,43.0,-24.34,23.13,-6.97
3897.7,-220.49019607843138,281.0,224.50980392156862,-55.7,-7.13,-30.91
3897.75,-252.49019607843138,-312.5098039215686,-233.0,-50.52,28.07,-9.31
3897.8,-188.49019607843138,150.0,-141.0,7.11,5.53,0.44
3897.85,-315.4901960784314,281.0,132.50980392156862,-65.68,-27.47,10.94
3897.9,-252.49019607843138,-198.50980392156862,227.0,0.85,-8.36,-10.89
3897.95,247.01960784313727,-263.5098039215686,-233.0,2.28,-3.84,-21.32
3898.0,-236.49019607843138,-263.5098039215686,-156.0,-14.61,22.01,-31.15
3898.05,-140.49019607843138,-182.50980392156862,286.5098039215686,-41.46,0.28,-13.76
3898.1,231.01960784313727,95.49019607843137,-110.0,9.6,36.57,-13.16
3898.15,311.01960784313724,-100.50980392156863,239.50980392156862,3.86,14.03,-21.49
3898.2,-204.49019607843138,35.0,-233.0,41.27,-11.19,-7.56
3898.25,-283.4901960784314,46.490196078431374,-184.50980392156862,9.95,11.44,-7.84
3898.3,295.01960784313724,-231.50980392156862,-249.0,40.89,20.61,-24.29
3898.35,-315.4901960784314,-51.509803921568626,-233.0,-19.58,36.89,-12.78
3898.4,113.50980392156863,-182.50980392156862,-64.0,-20.35,23.06,3.07
3898.45,-45.490196078431374,-165.50980392156862,116.50980392156863,25.84,6.65,26.9
3898.5,-156.49019607843138,-263.5098039215686,286.5098039215686,16.46,0.28,17.73
3898.55,247.01960784313727,-116.50980392156863,224.50980392156862,20.06,0.84,-4.06
3898.6,152.01960784313727,-231.50980392156862,70.50980392156863,58.04,-10.39,-4.27
3898.65,168.01960784313727,-214.50980392156862,209.50980392156862,44.81,-23.72,14.48
3898.7,231.01960784313727,-100.50980392156863,-95.0,25.03,-5.14,14.44
3898.75,-93.49019607843137,-231.50980392156862,-172.0,-48.35,14.03,8.04
3898.8,-108.49019607843137,-214.50980392156862,-249.0,-18.85,6.37,12.97
3898.85,136.01960784313727,313.0,224.50980392156862,22.72,-27.68,49.86
3898.9,120.01960784313725,-165.50980392156862,316.5098039215686,21.88,-20.47,69.81
3898.95,311.01960784313724,199.0,236.01960784313727,-3.2,-61.59,57.63
