rel_time,acc_x,acc_y,acc_z,gyro_x,gyro_y,gyro_z
1801.0,-179.0,-116.50980392156863,-98.49019607843137,-44.88,34.7,-12.7
1801.05,-131.0,-67.50980392156863,-113.49019607843137,-27.63,37.05,-4.09
1801.1,-36.0,-51.509803921568626,-83.49019607843137,-4.91,30.85,9.52
1801.15,58.0,79.49019607843137,-206.49019607843138,61.3,45.55,20.09
1801.2,27.0,160.49019607843138,-252.49019607843138,3.3,80.73,33.35
1801.25,122.0,-67.50980392156863,313.01960784313724,-11.42,91.4,64.08
1801.3,-313.5098039215686,79.49019607843137,175.01960784313727,-65.32,102.29,99.01
1801.35,-59.509803921568626,-318.01960784313724,221.01960784313727,-70.82,90.25,173.39
1801.4,-27.50980392156863,-155.01960784313727,-67.49019607843137,-123.49,66.8,247.59
1801.45,35.490196078431374,242.49019607843138,-295.0,-105.08,2.33,259.24
1801.5,35.490196078431374,79.49019607843137,104.0,14.12,-8.62,196.17
1801.55,-186.50980392156862,-182.50980392156862,12.0,-38.93,6.91,108.29
1801.6,-234.50980392156862,150.0,-33.0,-2.18,-7.74,43.85
1801.65,-282.5098039215686,52.0,-141.0,-56.57,-9.81,0.8
1801.7,-43.509803921568626,68.0,-156.0,-38.51,-11.03,-10.35
1801.75,-320.01960784313724,84.0,239.50980392156862,37.99,-6.9,9.94
1801.8,-305.01960784313724,215.0,101.50980392156863,5.02,-7.29,14.8
1801.85,-209.01960784313727,84.0,301.5098039215686,31.48,-6.13,18.02
1801.9,-289.01960784313724,117.0,239.50980392156862,-11.21,-2.81,21.21
1801.95,258.4901960784314,-13.0,-295.0,46.39,-24.58,7.03
1802.0,226.49019607843138,183.0,-172.0,-17.27,-5.64,-5.8
1802.05,194.49019607843138,-209.0,-279.0,84.68,-7.18,-3.95
1802.1,306.4901960784314,297.0,101.50980392156863,19.12,4.22,-30.3
1802.15,-273.01960784313724,-13.0,178.50980392156862,0.5,-10.86,-10.7
1802.2,-289.01960784313724,133.0,39.509803921568626,87.93,-28.22,-10.77
1802.25,-273.01960784313724,183.0,178.50980392156862,-2.11,9.64,-12.14
1802.3,-11.509803921568627,150.0,239.50980392156862,124.79,-24.37,-3.28
1802.35,131.49019607843138,68.0,-233.0,-112.57,2.75,-12.0
1802.4,51.490196078431374,-274.0,286.5098039215686,63.22,-4.84,-3.39
1802.45,242.49019607843138,-214.50980392156862,-129.49019607843138,2.32,0.09,1.54
1802.5,178.49019607843138,-29.0,132.50980392156862,-23.71,-12.01,21.98
1802.55,-289.01960784313724,-62.0,147.50980392156862,-58.46,4.64,21.14
1802.6,274.4901960784314,-45.0,162.50980392156862,-77.12,23.05,15.12
1802.65,67.49019607843137,52.0,-98.49019607843137,47.44,-17.72,36.89
1802.7,178.49019607843138,35.0,-310.0,-179.49,6.32,16.9
1802.75,83.49019607843137,286.5098039215686,-279.0,-6.56,5.23,30.27
1802.8,290.4901960784314,-198.50980392156862,-52.490196078431374,-76.42,11.08,40.63
1802.85,290.4901960784314,-62.0,224.50980392156862,-108.44,-4.45,66.99
1802.9,-241.01960784313727,-29.0,101.50980392156863,-94.09,-1.3,66.53
1802.95,-193.01960784313727,52.0,239.50980392156862,-140.36,10.38,45.78
1803.0,-257.01960784313724,133.0,147.50980392156862,35.05,-38.61,76.61
1803.05,258.4901960784314,183.0,-295.0,-258.21,6.77,59.25
1803.1,-11.509803921568627,319.5098039215686,12.0,-68.19,6.39,42.17
1803.15,306.4901960784314,-133.50980392156862,239.50980392156862,-133.85,19.16,28.31
1803.2,290.4901960784314,19.0,-18.0,-127.8,33.55,36.19
1803.25,-241.01960784313727,166.0,-264.0,-131.79,-0.39,46.55
1803.3,-193.01960784313727,133.0,73.0,-186.21,-11.31,32.62
1803.35,306.4901960784314,166.0,-64.0,-81.46,-59.33,39.37
1803.4,-273.01960784313724,-231.50980392156862,73.0,-134.06,-13.52,27.68
1803.45,-289.01960784313724,-127.0,-49.0,-73.93,-22.06,6.54
1803.5,290.4901960784314,313.0,224.50980392156862,-23.01,-98.99,-67.26
1803.55,290.4901960784314,-209.0,-3.0,-50.03,-135.74,-146.08
1803.6,178.49019607843138,205.50980392156862,58.0,273.15,-232.76,-128.3
1803.65,242.49019607843138,297.0,178.50980392156862,-258.38,-247.11,-23.83
1803.7,115.49019607843137,-2.5098039215686274,132.50980392156862,82.33,-172.98,50.99
1803.75,201.0,232.0,-206.49019607843138,123.88,-120.69,57.5
1803.8,122.0,-263.5098039215686,-40.98039215686274,61.93,-73.26,50.61
1803.85,42.0,-111.0,252.01960784313727,45.9,-46.28,42.63
1803.9,-4.0,-209.0,267.01960784313724,40.89,-27.52,44.13
1803.95,11.0,303.5098039215686,267.01960784313724,34.94,-17.12,40.39
1804.0,11.0,254.50980392156862,313.01960784313724,12.16,-12.12,31.39
1804.05,-84.0,221.50980392156862,-313.4901960784314,8.31,-12.96,25.48
1804.1,-131.0,172.50980392156862,-313.4901960784314,5.79,-10.09,26.84
1804.15,-131.0,139.50980392156862,-313.4901960784314,6.1,-9.25,20.23
1804.2,-147.0,139.50980392156862,-236.49019607843138,-24.62,-19.01,7.14
1804.25,-131.0,139.50980392156862,-98.49019607843137,-42.64,-40.96,-2.34
1804.3,-116.0,139.50980392156862,9.509803921568627,-128.88,-63.15,-17.18
1804.35,-195.0,188.50980392156862,163.50980392156862,-229.19,-78.09,-50.74
1804.4,288.5098039215686,-307.0,178.50980392156862,-252.19,-88.17,-108.0
1804.45,193.50980392156862,-160.0,239.50980392156862,-149.57,-106.83,-144.86
1804.5,34.509803921568626,19.0,101.50980392156863,-120.34,-140.15,-167.4
1804.55,-140.49019607843138,52.0,116.50980392156863,-148.38,-183.41,-200.65
1804.6,247.01960784313727,68.0,209.50980392156862,-140.12,-233.95,-238.87
1804.65,-276.98039215686276,166.0,193.50980392156862,-43.94,-174.34,-234.7
1804.7,-79.47058823529412,-84.50980392156863,-252.49019607843138,61.75,-128.35,-128.69
1804.75,-86.98039215686275,-51.509803921568626,-252.49019607843138,-18.28,-75.89,-43.15
1804.8,231.01960784313727,313.0,-283.4901960784314,-33.72,-11.07,-0.69
1804.85,-315.4901960784314,-214.50980392156862,298.01960784313724,-5.16,44.78,29.54
1804.9,-252.49019607843138,-100.50980392156863,-160.49019607843138,-18.21,72.99,74.27
1804.95,311.01960784313724,-198.50980392156862,86.50980392156863,-28.33,84.61,121.59
1805.0,184.01960784313727,-231.50980392156862,193.50980392156862,-34.63,82.65,147.84
1805.05,88.01960784313725,-263.5098039215686,301.5098039215686,2.67,63.58,158.44
1805.1,88.01960784313725,-247.50980392156862,-279.0,37.32,47.16,152.11
1805.15,41.01960784313726,-263.5098039215686,-203.0,28.82,33.86,138.56
1805.2,136.01960784313727,297.0,-218.0,-0.05,13.49,121.9
1805.25,216.01960784313727,199.0,-126.0,24.09,-6.45,100.62
1805.3,295.01960784313724,232.0,-203.0,25.35,-20.76,71.92
1805.35,-267.4901960784314,199.0,-218.0,35.05,-38.26,40.25
1805.4,-204.49019607843138,183.0,-279.0,32.53,-49.74,9.31
1805.45,-156.49019607843138,150.0,316.5098039215686,21.05,-65.56,-36.64
1805.5,-93.49019607843137,117.0,255.50980392156862,24.48,-74.73,-74.37
1805.55,-156.49019607843138,150.0,224.50980392156862,40.82,-85.93,-108.67
1805.6,-188.49019607843138,215.0,162.50980392156862,71.52,-87.82,-133.38
1805.65,-315.4901960784314,264.0,39.509803921568626,81.88,-72.53,-132.82
1805.7,200.01960784313727,313.0,-6.490196078431373,52.34,-41.66,-92.67
1805.75,184.01960784313727,-312.5098039215686,9.509803921568627,22.62,-8.02,-39.58
1805.8,216.01960784313727,-296.5098039215686,-6.490196078431373,27.59,12.72,6.54
1805.85,-252.49019607843138,-263.5098039215686,-21.49019607843137,44.04,38.13,38.85
1805.9,-267.4901960784314,-247.50980392156862,24.50980392156863,34.91,51.47,64.36
1805.95,-267.4901960784314,281.0,101.50980392156863,16.04,47.44,69.72
1806.0,-315.4901960784314,232.0,178.50980392156862,-4.74,51.4,76.79
1806.05,104.01960784313725,215.0,163.50980392156862,-0.36,48.18,106.71
1806.1,311.01960784313724,215.0,147.50980392156862,28.68,46.18,130.13
1806.15,-188.49019607843138,199.0,132.50980392156862,24.34,39.78,112.35
1806.2,-172.49019607843138,84.0,209.50980392156862,5.26,19.02,63.87
1806.25,-172.49019607843138,52.0,209.50980392156862,-5.02,10.73,23.27
1806.3,-124.49019607843137,68.0,101.50980392156863,-3.23,5.27,-1.64
1806.35,-45.490196078431374,35.0,116.50980392156863,-25.49,-2.07,-39.51
1806.4,-124.49019607843137,19.0,193.50980392156862,-28.12,-23.35,-80.56
1806.45,-156.49019607843138,35.0,86.50980392156863,-10.09,-36.93,-113.04
1806.5,-108.49019607843137,117.0,55.509803921568626,-22.66,-37.91,-138.0
1806.55,-156.49019607843138,101.0,9.509803921568627,-46.84,-35.6,-149.76
1806.6,-267.4901960784314,117.0,70.50980392156863,-65.46,-25.94,-137.96
1806.65,247.01960784313727,232.0,39.509803921568626,-54.68,-15.27,-92.43
1806.7,295.01960784313724,-312.5098039215686,24.50980392156863,-55.42,-3.51,-50.95
1806.75,-315.4901960784314,-312.5098039215686,55.509803921568626,-71.41,5.02,-25.96
1806.8,-267.4901960784314,264.0,86.50980392156863,-61.09,7.54,-12.91
1806.85,-220.49019607843138,281.0,70.50980392156863,-32.07,2.12,-4.16
1806.9,-140.49019607843138,297.0,86.50980392156863,-17.06,-1.62,6.16
1806.95,-77.49019607843137,281.0,24.50980392156863,2.92,-5.57,14.17
1807.0,-108.49019607843137,232.0,24.50980392156863,-18.46,17.48,28.03
1807.05,279.01960784313724,199.0,-52.490196078431374,-32.25,24.87,54.49
1807.1,-283.4901960784314,150.0,116.50980392156863,-29.38,22.21,67.93
1807.15,-283.4901960784314,183.0,101.50980392156863,10.3,12.86,71.64
1807.2,-299.4901960784314,248.0,132.50980392156862,20.66,6.84,57.75
1807.25,-236.49019607843138,166.0,193.50980392156862,22.45,1.28,29.71
1807.3,-204.49019607843138,166.0,224.50980392156862,16.53,-1.72,-6.19
1807.35,-204.49019607843138,183.0,286.5098039215686,-1.52,-6.31,-22.43
1807.4,-236.49019607843138,199.0,301.5098039215686,-3.86,-20.2,-27.29
1807.45,-236.49019607843138,232.0,-295.0,19.47,-30.0,-27.75
1807.5,-236.49019607843138,281.0,270.5098039215686,32.6,-34.06,-24.21
1807.55,-267.4901960784314,281.0,239.50980392156862,18.46,-30.91,-18.44
1807.6,-299.4901960784314,248.0,255.50980392156862,15.9,-28.78,-13.05
1807.65,-283.4901960784314,264.0,193.50980392156862,23.15,-24.61,-6.15
1807.7,-283.4901960784314,248.0,147.50980392156862,19.54,-15.65,-3.7
1807.75,-267.4901960784314,248.0,101.50980392156863,13.73,-3.54,-3.84
1807.8,-283.4901960784314,183.0,86.50980392156863,-0.19,17.34,-4.93
1807.85,-315.4901960784314,199.0,55.509803921568626,-20.49,30.64,-6.33
1807.9,295.01960784313724,183.0,86.50980392156863,-64.27,54.55,-6.12
1807.95,9.019607843137255,183.0,101.50980392156863,-61.65,46.01,36.36
1808.0,-283.4901960784314,183.0,178.50980392156862,5.23,37.08,61.98
1808.05,-77.49019607843137,248.0,163.50980392156862,60.04,26.97,56.0
1808.1,-188.49019607843138,232.0,209.50980392156862,39.74,15.8,52.88
1808.15,247.01960784313727,101.0,209.50980392156862,40.51,-14.67,71.4
1808.2,-299.4901960784314,117.0,193.50980392156862,93.29,-36.16,85.5
1808.25,-188.49019607843138,264.0,147.50980392156862,97.94,-42.88,86.34
1808.3,-220.49019607843138,248.0,101.50980392156863,82.26,-42.88,74.69
1808.35,-236.49019607843138,199.0,55.509803921568626,115.44,-39.94,73.22
1808.4,-204.49019607843138,248.0,-21.49019607843137,131.16,-29.09,67.2
1808.45,-188.49019607843138,166.0,-98.49019607843137,108.09,-15.2,65.17
1808.5,-77.49019607843137,52.0,-98.49019607843137,81.04,-15.79,66.81
1808.55,2.5098039215686274,133.0,-144.49019607843138,40.16,-10.12,90.58
1808.6,2.5098039215686274,199.0,-98.49019607843137,11.28,-8.65,76.58
1808.65,256.5098039215686,35.0,-67.49019607843137,24.02,4.92,73.95
1808.7,-306.0,297.0,-283.4901960784314,25.21,10.52,68.14
1808.75,288.5098039215686,199.0,-98.49019607843137,46.95,1.14,84.59
1808.8,240.50980392156862,248.0,-6.490196078431373,75.47,-66.16,98.17
1808.85,145.50980392156862,144.49019607843138,-218.0,15.87,-65.0,53.48
1808.9,279.01960784313724,-100.50980392156863,178.50980392156862,-3.44,-62.48,20.16
1808.95,-283.4901960784314,-100.50980392156863,116.50980392156863,-14.08,-37.53,10.36
1809.0,18.50980392156863,-18.50980392156863,-52.490196078431374,-1.03,-21.29,5.18
1809.05,145.50980392156862,-84.50980392156863,101.50980392156863,5.44,-8.62,-1.43
1809.1,18.50980392156863,-84.50980392156863,9.509803921568627,-7.5,-9.46,-6.68
1809.15,34.509803921568626,-133.50980392156862,162.50980392156862,-6.66,-1.34,-6.43
1809.2,18.50980392156863,-2.5098039215686274,55.509803921568626,-5.3,6.07,-11.44
1809.25,49.509803921568626,-67.50980392156863,86.50980392156863,8.94,11.78,-28.59
1809.3,-45.490196078431374,-100.50980392156863,24.50980392156863,-21.33,16.61,-42.87
1809.35,-236.49019607843138,-116.50980392156863,70.50980392156863,-13.84,18.32,-36.08
1809.4,-188.49019607843138,-84.50980392156863,39.509803921568626,-2.67,8.35,-30.76
1809.45,-61.490196078431374,-214.50980392156862,70.50980392156863,-12.68,-2.67,-26.56
1809.5,-61.490196078431374,264.0,270.5098039215686,-22.13,0.4,-23.51
1809.55,-204.49019607843138,248.0,132.50980392156862,-28.26,12.55,-23.51
1809.6,-236.49019607843138,297.0,9.509803921568627,-4.28,17.62,-20.01
1809.65,-77.49019607843137,281.0,-36.490196078431374,1.76,7.4,-14.8
1809.7,-45.490196078431374,183.0,116.50980392156863,6.94,-0.46,-10.91
1809.75,-108.49019607843137,232.0,86.50980392156863,1.76,-11.59,6.79
1809.8,-172.49019607843138,-263.5098039215686,86.50980392156863,-4.88,0.79,12.7
1809.85,-188.49019607843138,297.0,-6.490196078431373,4.88,12.58,-0.55
1809.9,-93.49019607843137,313.0,39.509803921568626,7.47,9.57,-4.58
1809.95,-108.49019607843137,248.0,116.50980392156863,-2.81,-0.92,0.24
1810.0,-172.49019607843138,-247.50980392156862,147.50980392156862,-5.65,1.17,1.64
1810.05,-172.49019607843138,-247.50980392156862,70.50980392156863,0.82,6.04,-1.04
1810.1,-77.49019607843137,-312.5098039215686,9.509803921568627,-4.53,3.55,-2.69
1810.15,-93.49019607843137,-312.5098039215686,86.50980392156863,-9.85,3.55,-4.3
1810.2,-156.49019607843138,-296.5098039215686,70.50980392156863,-7.01,4.43,-3.18
1810.25,-124.49019607843137,-296.5098039215686,-6.490196078431373,0.57,3.24,-2.9
1810.3,-77.49019607843137,-280.5098039215686,24.50980392156863,-4.11,4.53,-3.56
1810.35,-124.49019607843137,297.0,24.50980392156863,-6.35,3.34,-4.33
1810.4,-93.49019607843137,-312.5098039215686,55.509803921568626,-2.32,2.05,-2.83
1810.45,-93.49019607843137,-280.5098039215686,9.509803921568627,-1.66,2.08,-0.94
1810.5,-77.49019607843137,-312.5098039215686,9.509803921568627,2.57,0.37,-0.17
1810.55,-77.49019607843137,-280.5098039215686,9.509803921568627,1.62,-0.85,-0.48
1810.6,-93.49019607843137,313.0,55.509803921568626,-0.89,0.33,-0.73
1810.65,-108.49019607843137,-312.5098039215686,24.50980392156863,-1.66,1.38,-0.69
1810.7,-93.49019607843137,-312.5098039215686,24.50980392156863,-0.36,0.86,-0.83
1810.75,-93.49019607843137,-296.5098039215686,39.509803921568626,-0.64,1.1,-0.13
1810.8,-93.49019607843137,-312.5098039215686,39.509803921568626,-1.2,1.8,0.1
1810.85,-108.49019607843137,313.0,24.50980392156863,-2.43,2.01,0.63
1810.9,-77.49019607843137,-312.5098039215686,39.509803921568626,-4.56,3.31,0.03
1810.95,-93.49019607843137,297.0,39.509803921568626,-2.53,2.71,-0.06
1811.0,-77.49019607843137,-312.5098039215686,39.509803921568626,-4.53,2.5,-0.45
1811.05,-108.49019607843137,-312.5098039215686,55.509803921568626,-3.48,6.49,-3.18
1811.1,-77.49019607843137,313.0,-6.490196078431373,-1.94,6.28,-3.39
1811.15,-77.49019607843137,-296.5098039215686,24.50980392156863,-4.53,4.67,-3.35
1811.2,-93.49019607843137,313.0,39.509803921568626,-2.95,3.27,-2.51
1811.25,-93.49019607843137,-296.5098039215686,24.50980392156863,-0.57,1.77,-0.52
1811.3,-77.49019607843137,-312.5098039215686,9.509803921568627,-0.26,-0.85,0.91
1811.35,-77.49019607843137,313.0,39.509803921568626,1.48,-0.11,1.92
1811.4,-77.49019607843137,-312.5098039215686,-6.490196078431373,1.9,-0.04,1.68
1811.45,-77.49019607843137,-312.5098039215686,39.509803921568626,0.36,0.16,1.08
1811.5,-108.49019607843137,-312.5098039215686,24.50980392156863,1.27,-1.3,1.43
1811.55,-77.49019607843137,313.0,24.50980392156863,4.0,-0.46,2.52
1811.6,-93.49019607843137,-312.5098039215686,9.509803921568627,5.44,-2.84,2.94
1811.65,-61.490196078431374,313.0,24.50980392156863,5.02,-1.97,3.95
1811.7,-108.49019607843137,313.0,9.509803921568627,5.47,-1.55,3.43
1811.75,-77.49019607843137,313.0,9.509803921568627,2.11,-1.58,1.64
1811.8,-108.49019607843137,-312.5098039215686,24.50980392156863,1.59,-0.5,0.8
1811.85,-93.49019607843137,-312.5098039215686,24.50980392156863,1.38,0.02,1.08
1811.9,-108.49019607843137,-312.5098039215686,9.509803921568627,1.13,-1.72,1.15
1811.95,-77.49019607843137,-312.5098039215686,55.509803921568626,0.36,-1.23,0.56
1812.0,-77.49019607843137,313.0,24.50980392156863,0.26,-0.39,0.7
1812.05,-93.49019607843137,-312.5098039215686,9.509803921568627,-0.96,-0.85,1.08
1812.1,-77.49019607843137,-312.5098039215686,24.50980392156863,-1.48,-0.39,0.98
1812.15,-93.49019607843137,313.0,39.509803921568626,-3.51,1.1,-0.1
1812.2,-77.49019607843137,297.0,39.509803921568626,-5.37,2.36,-1.39
1812.25,-77.49019607843137,-296.5098039215686,39.509803921568626,-7.89,4.6,-3.14
1812.3,-93.49019607843137,313.0,24.50980392156863,-7.15,5.48,-3.56
1812.35,-108.49019607843137,-312.5098039215686,24.50980392156863,-4.6,5.58,-3.18
1812.4,-77.49019607843137,-312.5098039215686,9.509803921568627,-3.97,5.2,-3.11
1812.45,-93.49019607843137,-296.5098039215686,-6.490196078431373,-0.99,3.73,-1.85
1812.5,-61.490196078431374,-312.5098039215686,-6.490196078431373,-0.4,2.57,-0.73
1812.55,-77.49019607843137,-312.5098039215686,-6.490196078431373,-1.94,-0.5,1.15
1812.6,-77.49019607843137,-312.5098039215686,39.509803921568626,0.71,-1.06,1.29
1812.65,-61.490196078431374,-296.5098039215686,24.50980392156863,0.92,-0.53,1.54
1812.7,-61.490196078431374,-312.5098039215686,-6.490196078431373,-2.36,-0.92,1.19
1812.75,-77.49019607843137,-312.5098039215686,24.50980392156863,1.24,-1.9,0.63
1812.8,-93.49019607843137,-296.5098039215686,9.509803921568627,2.53,-1.86,3.22
1812.85,-108.49019607843137,-312.5098039215686,-36.490196078431374,2.57,-4.28,3.95
1812.9,-61.490196078431374,-296.5098039215686,70.50980392156863,4.88,-3.54,3.99
1812.95,-77.49019607843137,-312.5098039215686,9.509803921568627,4.42,-2.18,3.36
1813.0,-77.49019607843137,313.0,9.509803921568627,4.25,-2.74,3.01
1813.05,-61.490196078431374,-312.5098039215686,24.50980392156863,2.57,-1.65,2.34
1813.1,-93.49019607843137,313.0,24.50980392156863,2.81,-1.86,1.12
1813.15,-77.49019607843137,-312.5098039215686,24.50980392156863,1.38,-0.08,0.94
1813.2,-77.49019607843137,-280.5098039215686,24.50980392156863,1.41,-2.32,0.31
1813.25,-77.49019607843137,297.0,39.509803921568626,2.36,-0.22,1.29
1813.3,-108.49019607843137,-312.5098039215686,-6.490196078431373,1.41,-1.72,1.12
1813.35,-93.49019607843137,313.0,55.509803921568626,-1.48,0.4,0.49
1813.4,-93.49019607843137,313.0,55.509803921568626,-2.25,2.43,-2.34
1813.45,-77.49019607843137,-312.5098039215686,24.50980392156863,-4.63,2.96,-2.62
1813.5,-108.49019607843137,313.0,39.509803921568626,-6.28,5.3,-3.77
1813.55,-93.49019607843137,-312.5098039215686,24.50980392156863,-4.32,5.41,-4.26
1813.6,-93.49019607843137,-280.5098039215686,9.509803921568627,-4.49,3.94,-3.81
1813.65,-77.49019607843137,-296.5098039215686,9.509803921568627,-5.37,2.99,-2.55
1813.7,-77.49019607843137,-312.5098039215686,-6.490196078431373,-0.54,-0.67,-0.2
1813.75,-93.49019607843137,-280.5098039215686,-6.490196078431373,0.05,-1.2,1.61
1813.8,-108.49019607843137,-296.5098039215686,-6.490196078431373,-0.26,-1.02,1.33
1813.85,-93.49019607843137,-312.5098039215686,24.50980392156863,1.24,-0.53,0.8
1813.9,-93.49019607843137,-312.5098039215686,24.50980392156863,0.64,-0.08,0.66
1813.95,-93.49019607843137,-312.5098039215686,39.509803921568626,1.59,-0.46,1.29
1814.0,-93.49019607843137,-312.5098039215686,9.509803921568627,3.2,-2.0,3.15
1814.05,-61.490196078431374,-312.5098039215686,24.50980392156863,5.79,-1.79,3.64
1814.1,-77.49019607843137,-312.5098039215686,-6.490196078431373,4.11,-2.25,3.78
1814.15,-93.49019607843137,-312.5098039215686,24.50980392156863,6.31,-5.85,1.19
1814.2,-77.49019607843137,-296.5098039215686,24.50980392156863,8.55,1.94,-1.67
1814.25,-172.49019607843138,-312.5098039215686,-6.490196078431373,-7.78,0.86,-4.37
1814.3,-108.49019607843137,297.0,116.50980392156863,-5.44,2.01,-2.09
1814.35,-29.49019607843137,313.0,55.509803921568626,6.84,2.36,0.24
1814.4,-61.490196078431374,313.0,-52.490196078431374,13.52,1.35,5.04
1814.45,-93.49019607843137,-296.5098039215686,-36.490196078431374,9.95,0.26,7.35
1814.5,-77.49019607843137,297.0,55.509803921568626,1.87,-1.93,5.53
1814.55,-45.490196078431374,-296.5098039215686,86.50980392156863,-7.99,0.68,0.03
1814.6,-108.49019607843137,297.0,70.50980392156863,-14.26,5.83,-5.49
1814.65,-124.49019607843137,-312.5098039215686,24.50980392156863,-6.21,10.1,-6.33
1814.7,-61.490196078431374,-312.5098039215686,-52.490196078431374,-3.48,7.86,-4.51
1814.75,-77.49019607843137,313.0,-6.490196078431373,-4.53,0.86,-0.87
1814.8,-93.49019607843137,313.0,9.509803921568627,-1.52,-2.14,1.64
1814.85,-61.490196078431374,297.0,-6.490196078431373,1.24,-2.74,2.45
1814.9,-77.49019607843137,-312.5098039215686,-6.490196078431373,2.36,-1.93,2.87
1814.95,-77.49019607843137,-312.5098039215686,-6.490196078431373,3.09,-1.51,2.03
1815.0,-93.49019607843137,-312.5098039215686,24.50980392156863,4.42,-2.53,2.41
1815.05,-93.49019607843137,-296.5098039215686,24.50980392156863,4.74,-1.72,3.81
1815.1,-77.49019607843137,313.0,-6.490196078431373,1.17,-2.67,2.24
1815.15,-93.49019607843137,297.0,39.509803921568626,2.18,-1.48,1.75
1815.2,-77.49019607843137,313.0,24.50980392156863,4.7,0.19,1.92
1815.25,-93.49019607843137,-312.5098039215686,-21.49019607843137,1.48,-1.3,1.08
1815.3,-77.49019607843137,313.0,70.50980392156863,1.66,0.58,1.15
1815.35,-93.49019607843137,-312.5098039215686,-6.490196078431373,2.25,-0.5,1.4
1815.4,-93.49019607843137,-312.5098039215686,9.509803921568627,-0.54,-0.32,1.92
1815.45,-93.49019607843137,313.0,24.50980392156863,-1.17,-0.15,1.01
1815.5,-77.49019607843137,-296.5098039215686,39.509803921568626,-3.69,3.13,-1.67
1815.55,-77.49019607843137,313.0,9.509803921568627,-7.15,3.13,-3.46
1815.6,-77.49019607843137,313.0,39.509803921568626,-7.92,5.79,-4.68
1815.65,-93.49019607843137,-280.5098039215686,-21.49019607843137,-6.94,6.56,-5.14
1815.7,-61.490196078431374,313.0,9.509803921568627,-4.32,6.11,-3.0
1815.75,-77.49019607843137,313.0,-21.49019607843137,-2.36,4.71,-3.77
1815.8,-77.49019607843137,-312.5098039215686,9.509803921568627,-1.83,3.87,-3.0
1815.85,-61.490196078431374,-312.5098039215686,9.509803921568627,-1.17,2.99,-2.2
1815.9,-77.49019607843137,-312.5098039215686,-6.490196078431373,-1.27,1.73,-0.97
1815.95,-61.490196078431374,-312.5098039215686,9.509803921568627,1.03,0.26,-0.34
1816.0,-61.490196078431374,297.0,-21.49019607843137,2.78,-0.74,2.1
1816.05,-61.490196078431374,-312.5098039215686,-6.490196078431373,4.04,-3.26,3.64
1816.1,-45.490196078431374,-312.5098039215686,-6.490196078431373,3.48,-2.67,3.78
1816.15,-61.490196078431374,313.0,-21.49019607843137,0.82,-3.3,3.25
1816.2,-77.49019607843137,-312.5098039215686,24.50980392156863,0.54,-3.16,3.01
1816.25,-77.49019607843137,-312.5098039215686,-6.490196078431373,1.48,-2.49,2.41
1816.3,-61.490196078431374,313.0,9.509803921568627,1.34,-2.53,3.15
1816.35,-61.490196078431374,313.0,-6.490196078431373,0.43,-3.19,3.46
1816.4,-77.49019607843137,313.0,24.50980392156863,-2.29,-2.11,2.27
1816.45,-61.490196078431374,313.0,24.50980392156863,-1.97,0.33,1.12
1816.5,-77.49019607843137,313.0,9.509803921568627,-5.65,1.17,0.14
1816.55,-93.49019607843137,-312.5098039215686,24.50980392156863,-2.88,2.05,-1.11
1816.6,-61.490196078431374,313.0,-6.490196078431373,-2.25,4.01,-0.59
1816.65,-93.49019607843137,-312.5098039215686,-6.490196078431373,-3.06,3.17,-0.94
1816.7,-77.49019607843137,-296.5098039215686,39.509803921568626,0.75,2.29,-0.24
1816.75,-61.490196078431374,-312.5098039215686,9.509803921568627,1.13,1.94,0.03
1816.8,-61.490196078431374,-296.5098039215686,-6.490196078431373,-0.64,1.8,-0.48
1816.85,-93.49019607843137,-296.5098039215686,9.509803921568627,-1.03,0.82,-1.92
1816.9,-77.49019607843137,-296.5098039215686,9.509803921568627,1.69,0.4,-0.52
1816.95,-77.49019607843137,313.0,-6.490196078431373,-0.05,2.29,0.31
1817.0,-93.49019607843137,-296.5098039215686,9.509803921568627,-0.71,0.12,-1.29
1817.05,-61.490196078431374,-296.5098039215686,55.509803921568626,2.53,1.77,-0.55
1817.1,-77.49019607843137,-312.5098039215686,-36.490196078431374,0.85,0.89,0.94
1817.15,-77.49019607843137,-312.5098039215686,39.509803921568626,-1.03,-0.71,2.24
1817.2,-45.490196078431374,313.0,24.50980392156863,2.74,-0.39,2.48
1817.25,-77.49019607843137,-263.5098039215686,-21.49019607843137,3.37,-1.16,3.29
1817.3,-77.49019607843137,-312.5098039215686,24.50980392156863,2.36,-1.3,3.08
1817.35,-61.490196078431374,-312.5098039215686,-6.490196078431373,2.36,-0.71,2.34
1817.4,-93.49019607843137,-312.5098039215686,9.509803921568627,-0.5,-0.67,1.08
1817.45,-77.49019607843137,-312.5098039215686,39.509803921568626,-5.54,1.77,-0.8
1817.5,-61.490196078431374,313.0,24.50980392156863,-2.85,1.52,-1.53
1817.55,-77.49019607843137,-280.5098039215686,-6.490196078431373,-3.09,3.48,-1.92
1817.6,-77.49019607843137,313.0,-21.49019607843137,-3.37,4.22,-1.78
1817.65,-61.490196078431374,-296.5098039215686,-6.490196078431373,-4.35,3.27,-2.13
1817.7,-61.490196078431374,313.0,9.509803921568627,-0.89,3.55,-0.94
1817.75,-61.490196078431374,-296.5098039215686,-21.49019607843137,-0.92,2.01,-0.17
1817.8,-77.49019607843137,-296.5098039215686,9.509803921568627,-0.64,0.96,0.63
1817.85,-61.490196078431374,-312.5098039215686,-6.490196078431373,1.2,0.05,1.08
1817.9,-29.49019607843137,-312.5098039215686,-6.490196078431373,1.2,-0.85,1.61
1817.95,-77.49019607843137,-296.5098039215686,-6.490196078431373,1.31,-1.65,1.68
1818.0,-61.490196078431374,-312.5098039215686,-6.490196078431373,3.93,-1.62,2.62
1818.05,-77.49019607843137,313.0,-21.49019607843137,3.62,-1.69,2.34
1818.1,-77.49019607843137,-312.5098039215686,-6.490196078431373,1.76,-2.81,2.24
1818.15,-61.490196078431374,313.0,9.509803921568627,3.3,-2.14,1.78
1818.2,-77.49019607843137,-296.5098039215686,-21.49019607843137,3.13,-2.21,1.68
1818.25,-93.49019607843137,-312.5098039215686,9.509803921568627,1.8,-1.79,1.29
1818.3,-77.49019607843137,-312.5098039215686,9.509803921568627,1.87,-2.42,0.73
1818.35,-77.49019607843137,-296.5098039215686,9.509803921568627,0.08,-1.86,0.77
1818.4,-61.490196078431374,-312.5098039215686,-6.490196078431373,-1.2,-0.88,0.14
1818.45,-77.49019607843137,-312.5098039215686,-6.490196078431373,-0.96,-0.81,-0.69
1818.5,-61.490196078431374,-312.5098039215686,-6.490196078431373,-2.04,1.56,-0.48
1818.55,-61.490196078431374,313.0,-6.490196078431373,-3.93,1.24,-1.08
1818.6,-77.49019607843137,313.0,24.50980392156863,-6.45,1.7,-1.46
1818.65,-77.49019607843137,-312.5098039215686,9.509803921568627,-5.19,4.11,-2.23
1818.7,-93.49019607843137,-296.5098039215686,-21.49019607843137,-2.6,2.92,-1.22
1818.75,-61.490196078431374,-296.5098039215686,-6.490196078431373,-3.86,3.66,-0.73
1818.8,-77.49019607843137,-312.5098039215686,-6.490196078431373,-1.62,2.78,-1.08
1818.85,-61.490196078431374,-296.5098039215686,9.509803921568627,-0.29,2.54,-0.03
1818.9,-108.49019607843137,-312.5098039215686,-21.49019607843137,-1.03,1.28,0.59
1818.95,-61.490196078431374,-296.5098039215686,9.509803921568627,2.53,-0.08,1.05
1819.0,-45.490196078431374,-263.5098039215686,-21.49019607843137,2.36,-0.11,2.03
1819.05,-93.49019607843137,-312.5098039215686,24.50980392156863,0.61,-0.78,2.2
1819.1,-61.490196078431374,-296.5098039215686,24.50980392156863,1.48,-0.85,1.47
1819.15,-77.49019607843137,-296.5098039215686,9.509803921568627,0.99,-0.92,1.05
1819.2,-45.490196078431374,-280.5098039215686,9.509803921568627,0.89,-1.37,1.29
1819.25,-77.49019607843137,-296.5098039215686,9.509803921568627,1.45,-1.69,1.54
1819.3,-77.49019607843137,-280.5098039215686,-6.490196078431373,1.52,-2.14,1.82
1819.35,-61.490196078431374,-312.5098039215686,24.50980392156863,0.75,-1.86,1.5
1819.4,-77.49019607843137,-296.5098039215686,9.509803921568627,-0.19,-1.97,0.45
1819.45,-61.490196078431374,-312.5098039215686,24.50980392156863,1.9,-0.92,0.45
1819.5,-61.490196078431374,-263.5098039215686,-6.490196078431373,1.13,-0.67,0.91
1819.55,-61.490196078431374,-312.5098039215686,-6.490196078431373,0.22,-1.86,0.63
1819.6,-61.490196078431374,-312.5098039215686,24.50980392156863,0.92,-0.11,-0.13
1819.65,-61.490196078431374,-296.5098039215686,-6.490196078431373,-1.66,0.82,-0.17
1819.7,-77.49019607843137,-296.5098039215686,9.509803921568627,-2.04,1.35,-0.48
1819.75,-61.490196078431374,313.0,39.509803921568626,-1.34,1.24,-0.2
1819.8,-61.490196078431374,-312.5098039215686,9.509803921568627,-3.65,1.56,-0.83
1819.85,-77.49019607843137,-296.5098039215686,9.509803921568627,-4.32,3.41,-1.29
1819.9,-77.49019607843137,-312.5098039215686,-6.490196078431373,-3.65,2.61,-1.01
1819.95,-77.49019607843137,-312.5098039215686,24.50980392156863,-1.97,2.68,0.1
1820.0,-45.490196078431374,-296.5098039215686,-6.490196078431373,-0.47,2.26,0.1
1820.05,-77.49019607843137,-312.5098039215686,9.509803921568627,-0.29,1.28,0.59
1820.1,-61.490196078431374,-296.5098039215686,-6.490196078431373,0.12,0.72,1.29
1820.15,-45.490196078431374,-312.5098039215686,-6.490196078431373,0.4,-0.71,1.92
1820.2,-77.49019607843137,-312.5098039215686,24.50980392156863,0.26,-1.3,1.99
1820.25,-61.490196078431374,-312.5098039215686,24.50980392156863,1.45,-1.79,2.03
1820.3,-93.49019607843137,-296.5098039215686,-6.490196078431373,1.66,-1.83,1.78
1820.35,-77.49019607843137,-296.5098039215686,9.509803921568627,2.78,-1.58,2.34
1820.4,-77.49019607843137,-296.5098039215686,-6.490196078431373,3.58,-2.46,1.68
1820.45,-45.490196078431374,-312.5098039215686,9.509803921568627,3.37,-1.9,2.27
1820.5,-77.49019607843137,-312.5098039215686,24.50980392156863,1.87,-2.0,1.92
1820.55,-77.49019607843137,-312.5098039215686,39.509803921568626,1.2,-1.72,0.59
1820.6,-61.490196078431374,-280.5098039215686,9.509803921568627,0.71,-0.53,-0.31
1820.65,-77.49019607843137,-280.5098039215686,9.509803921568627,-0.08,-0.57,-0.1
1820.7,-77.49019607843137,-312.5098039215686,24.50980392156863,0.29,-1.51,0.21
1820.75,-61.490196078431374,-312.5098039215686,24.50980392156863,1.17,-1.62,0.7
1820.8,-61.490196078431374,-312.5098039215686,-6.490196078431373,0.99,-1.62,0.84
1820.85,-77.49019607843137,-312.5098039215686,9.509803921568627,-1.31,-0.81,0.14
1820.9,-77.49019607843137,313.0,24.50980392156863,-1.17,0.89,-0.69
1820.95,-77.49019607843137,-296.5098039215686,-21.49019607843137,-2.95,1.56,-0.2
1821.0,-93.49019607843137,313.0,39.509803921568626,-4.98,2.22,-1.29
1821.05,-61.490196078431374,-312.5098039215686,24.50980392156863,-4.53,2.71,-1.6
1821.1,-61.490196078431374,-296.5098039215686,24.50980392156863,-2.71,3.34,-0.76
1821.15,-77.49019607843137,-296.5098039215686,-21.49019607843137,-1.24,2.78,-0.59
1821.2,-45.490196078431374,-312.5098039215686,9.509803921568627,0.89,2.26,0.91
1821.25,-45.490196078431374,-312.5098039215686,-21.49019607843137,2.57,0.47,2.1
1821.3,-61.490196078431374,-296.5098039215686,9.509803921568627,2.01,-0.67,2.94
1821.35,-61.490196078431374,-296.5098039215686,-6.490196078431373,1.38,-1.79,3.18
1821.4,-61.490196078431374,313.0,9.509803921568627,2.78,-1.44,2.8
1821.45,-77.49019607843137,-296.5098039215686,9.509803921568627,2.22,-0.64,2.27
1821.5,-77.49019607843137,-280.5098039215686,39.509803921568626,-0.01,-0.22,1.78
1821.55,-77.49019607843137,-296.5098039215686,9.509803921568627,0.61,-0.08,0.98
1821.6,-77.49019607843137,-312.5098039215686,9.509803921568627,-0.43,-0.18,0.31
1821.65,-108.49019607843137,-280.5098039215686,39.509803921568626,-0.19,-0.81,0.7
1821.7,-77.49019607843137,-296.5098039215686,-6.490196078431373,0.89,-1.51,0.84
1821.75,-77.49019607843137,-280.5098039215686,9.509803921568627,0.92,-1.3,1.01
1821.8,-77.49019607843137,-296.5098039215686,24.50980392156863,0.57,-0.71,0.8
1821.85,-77.49019607843137,-280.5098039215686,9.509803921568627,-0.33,-1.37,0.24
1821.9,-77.49019607843137,-312.5098039215686,24.50980392156863,1.2,0.26,0.56
1821.95,-93.49019607843137,-296.5098039215686,9.509803921568627,-1.06,-0.92,-0.2
1822.0,-93.49019607843137,-296.5098039215686,39.509803921568626,-0.71,-1.97,-0.38
1822.05,-61.490196078431374,-312.5098039215686,24.50980392156863,0.92,-1.51,0.07
1822.1,-77.49019607843137,-312.5098039215686,-6.490196078431373,1.1,-1.51,-0.24
1822.15,-77.49019607843137,-296.5098039215686,9.509803921568627,-1.17,-1.13,-0.52
1822.2,-77.49019607843137,-296.5098039215686,55.509803921568626,-1.66,-0.5,-0.2
1822.25,-61.490196078431374,-312.5098039215686,39.509803921568626,-2.78,1.35,0.03
1822.3,-77.49019607843137,-296.5098039215686,9.509803921568627,-4.04,1.66,-0.27
1822.35,-77.49019607843137,-296.5098039215686,39.509803921568626,-7.71,2.78,0.59
1822.4,-61.490196078431374,-312.5098039215686,24.50980392156863,0.71,-0.22,2.1
1822.45,-61.490196078431374,313.0,-6.490196078431373,2.5,-0.15,8.29
1822.5,-61.490196078431374,-312.5098039215686,-6.490196078431373,8.52,-8.37,9.9
1822.55,-45.490196078431374,-296.5098039215686,24.50980392156863,13.49,-8.02,10.39
1822.6,-93.49019607843137,-263.5098039215686,-21.49019607843137,8.8,-5.4,7.59
1822.65,-108.49019607843137,-296.5098039215686,55.509803921568626,2.11,0.61,3.64
1822.7,-93.49019607843137,-280.5098039215686,39.509803921568626,-3.62,2.96,-0.13
1822.75,-77.49019607843137,-280.5098039215686,101.50980392156863,-4.18,5.41,-1.71
1822.8,-93.49019607843137,-280.5098039215686,9.509803921568627,-4.28,4.85,-1.85
1822.85,-77.49019607843137,-280.5098039215686,39.509803921568626,-2.08,3.24,-1.46
1822.9,-77.49019607843137,-263.5098039215686,24.50980392156863,-0.33,2.08,0.98
1822.95,-77.49019607843137,-296.5098039215686,24.50980392156863,1.45,-1.13,2.31
1823.0,-61.490196078431374,-296.5098039215686,39.509803921568626,2.39,-3.26,2.73
1823.05,-77.49019607843137,-296.5098039215686,24.50980392156863,2.71,-2.21,2.34
1823.1,-77.49019607843137,-280.5098039215686,9.509803921568627,2.57,-2.67,1.82
1823.15,-93.49019607843137,-280.5098039215686,39.509803921568626,2.39,-3.12,1.92
1823.2,-77.49019607843137,-263.5098039215686,24.50980392156863,2.29,-2.67,1.54
1823.25,-108.49019607843137,-280.5098039215686,9.509803921568627,2.53,-2.74,1.19
1823.3,-93.49019607843137,-280.5098039215686,9.509803921568627,2.01,-1.9,1.43
1823.35,-93.49019607843137,-263.5098039215686,24.50980392156863,3.51,-2.74,1.47
1823.4,-77.49019607843137,-280.5098039215686,24.50980392156863,1.41,-2.07,1.57
1823.45,-77.49019607843137,-296.5098039215686,24.50980392156863,-0.01,-1.27,0.77
1823.5,-61.490196078431374,-280.5098039215686,55.509803921568626,-0.78,0.51,-0.34
1823.55,-77.49019607843137,-312.5098039215686,39.509803921568626,-4.77,2.43,-1.46
1823.6,-77.49019607843137,-280.5098039215686,39.509803921568626,-3.86,1.7,-1.99
1823.65,-93.49019607843137,-263.5098039215686,55.509803921568626,-3.62,2.54,-0.97
1823.7,-61.490196078431374,-296.5098039215686,24.50980392156863,-3.65,1.35,-1.43
1823.75,-77.49019607843137,-280.5098039215686,39.509803921568626,-1.8,3.55,-0.66
1823.8,-77.49019607843137,-280.5098039215686,-6.490196078431373,-2.22,2.19,-0.27
1823.85,-77.49019607843137,-296.5098039215686,55.509803921568626,1.41,2.01,0.59
1823.9,-77.49019607843137,-247.50980392156862,24.50980392156863,1.52,1.28,1.29
1823.95,-77.49019607843137,-296.5098039215686,24.50980392156863,0.89,1.49,1.54
1824.0,-93.49019607843137,-280.5098039215686,39.509803921568626,0.29,0.82,0.98
1824.05,-77.49019607843137,-296.5098039215686,24.50980392156863,-0.47,1.63,0.52
1824.1,-93.49019607843137,-280.5098039215686,9.509803921568627,0.33,0.16,1.01
1824.15,-77.49019607843137,-296.5098039215686,24.50980392156863,2.04,-0.53,2.34
1824.2,-61.490196078431374,-280.5098039215686,9.509803921568627,3.62,-2.6,2.73
1824.25,-77.49019607843137,-280.5098039215686,24.50980392156863,3.62,-2.14,3.11
1824.3,-93.49019607843137,-280.5098039215686,24.50980392156863,0.68,-3.96,2.45
1824.35,-77.49019607843137,-312.5098039215686,39.509803921568626,3.13,-1.72,2.13
1824.4,-77.49019607843137,-263.5098039215686,-6.490196078431373,2.39,-1.41,2.13
1824.45,-93.49019607843137,-263.5098039215686,55.509803921568626,-0.5,-1.97,0.91
1824.5,-77.49019607843137,-296.5098039215686,55.509803921568626,0.05,0.02,-0.1
1824.55,-93.49019607843137,-263.5098039215686,24.50980392156863,-0.57,-0.53,0.21
1824.6,-93.49019607843137,-247.50980392156862,24.50980392156863,0.19,-0.29,0.66
1824.65,-77.49019607843137,-280.5098039215686,39.509803921568626,-0.5,-1.09,0.94
1824.7,-77.49019607843137,-280.5098039215686,55.509803921568626,-1.17,-0.04,0.28
1824.75,-77.49019607843137,-280.5098039215686,9.509803921568627,-3.62,1.03,-0.45
1824.8,-93.49019607843137,-296.5098039215686,39.509803921568626,-4.39,0.96,-1.46
1824.85,-61.490196078431374,-280.5098039215686,55.509803921568626,-4.53,2.61,-1.88
1824.9,-93.49019607843137,-296.5098039215686,24.50980392156863,-3.93,2.5,-1.64
1824.95,-93.49019607843137,-263.5098039215686,24.50980392156863,-3.13,1.35,-1.29
1825.0,-93.49019607843137,-280.5098039215686,24.50980392156863,-2.71,1.98,-0.76
1825.05,-61.490196078431374,-263.5098039215686,9.509803921568627,-0.43,0.79,0.17
1825.1,-61.490196078431374,-280.5098039215686,9.509803921568627,0.47,0.68,1.33
1825.15,-61.490196078431374,-263.5098039215686,9.509803921568627,0.75,-0.67,1.57
1825.2,-77.49019607843137,-280.5098039215686,39.509803921568626,1.59,-0.29,1.57
1825.25,-77.49019607843137,-263.5098039215686,39.509803921568626,0.33,-0.11,1.36
1825.3,-93.49019607843137,-263.5098039215686,55.509803921568626,2.18,-0.81,1.08
1825.35,-61.490196078431374,-263.5098039215686,24.50980392156863,1.66,-0.5,1.64
1825.4,-108.49019607843137,-280.5098039215686,24.50980392156863,1.83,-1.69,1.61
1825.45,-93.49019607843137,-280.5098039215686,70.50980392156863,2.46,-2.04,1.96
1825.5,-61.490196078431374,-280.5098039215686,24.50980392156863,5.3,-1.58,2.1
1825.55,-77.49019607843137,-263.5098039215686,24.50980392156863,3.97,-2.35,2.62
1825.6,-77.49019607843137,-280.5098039215686,9.509803921568627,3.55,-3.12,2.38
1825.65,-93.49019607843137,-280.5098039215686,39.509803921568626,3.44,-2.32,1.85
1825.7,-77.49019607843137,-296.5098039215686,70.50980392156863,3.27,-1.58,1.12
1825.75,-93.49019607843137,-280.5098039215686,24.50980392156863,1.03,-1.23,0.42
1825.8,-77.49019607843137,-296.5098039215686,39.509803921568626,2.25,-0.67,0.03
1825.85,-61.490196078431374,-263.5098039215686,24.50980392156863,1.1,-0.11,0.49
1825.9,-108.49019607843137,-263.5098039215686,39.509803921568626,0.61,-1.76,0.42
1825.95,-61.490196078431374,-296.5098039215686,55.509803921568626,1.24,-0.5,0.73
1826.0,-61.490196078431374,-280.5098039215686,24.50980392156863,0.22,-1.09,0.63
1826.05,-108.49019607843137,-296.5098039215686,24.50980392156863,-0.4,-0.29,0.7
1826.1,-77.49019607843137,-296.5098039215686,39.509803921568626,-2.5,0.37,-0.06
1826.15,-93.49019607843137,-296.5098039215686,24.50980392156863,-2.67,0.96,-0.48
1826.2,-108.49019607843137,-296.5098039215686,39.509803921568626,-4.42,1.8,-0.66
1826.25,-108.49019607843137,-296.5098039215686,39.509803921568626,-5.23,2.78,-2.55
1826.3,-77.49019607843137,-263.5098039215686,24.50980392156863,-1.87,3.17,-1.53
1826.35,-124.49019607843137,-263.5098039215686,9.509803921568627,-2.39,2.36,-0.59
1826.4,-77.49019607843137,-296.5098039215686,24.50980392156863,-2.22,1.0,-0.2
1826.45,-77.49019607843137,-280.5098039215686,55.509803921568626,-1.97,0.26,0.91
1826.5,-93.49019607843137,-280.5098039215686,39.509803921568626,-0.26,-0.78,1.15
1826.55,-93.49019607843137,-280.5098039215686,39.509803921568626,0.15,-0.43,1.71
1826.6,-77.49019607843137,-280.5098039215686,39.509803921568626,-0.01,0.09,1.26
1826.65,-77.49019607843137,-296.5098039215686,70.50980392156863,0.15,0.3,0.77
1826.7,-93.49019607843137,-280.5098039215686,39.509803921568626,0.47,0.86,1.15
1826.75,-77.49019607843137,-263.5098039215686,24.50980392156863,-0.08,0.3,1.08
1826.8,-61.490196078431374,-296.5098039215686,24.50980392156863,2.11,-0.5,1.82
1826.85,-77.49019607843137,-263.5098039215686,9.509803921568627,3.37,-0.43,2.03
1826.9,-93.49019607843137,-263.5098039215686,24.50980392156863,2.11,-2.11,2.38
1826.95,-93.49019607843137,-263.5098039215686,70.50980392156863,4.11,-1.55,2.06
1827.0,-93.49019607843137,-296.5098039215686,24.50980392156863,3.65,-1.55,2.31
1827.05,-124.49019607843137,-280.5098039215686,24.50980392156863,3.51,-2.14,2.06
1827.1,-77.49019607843137,-280.5098039215686,55.509803921568626,3.34,-2.04,1.61
1827.15,-77.49019607843137,-296.5098039215686,55.509803921568626,2.36,-1.93,1.19
1827.2,-93.49019607843137,-263.5098039215686,39.509803921568626,2.08,-0.53,0.77
1827.25,-93.49019607843137,-280.5098039215686,39.509803921568626,1.31,-1.41,-0.1
1827.3,-77.49019607843137,-263.5098039215686,70.50980392156863,2.64,-0.01,0.63
1827.35,-108.49019607843137,-280.5098039215686,9.509803921568627,1.52,-0.78,0.56
1827.4,-108.49019607843137,-312.5098039215686,70.50980392156863,1.87,0.19,-0.55
1827.45,-93.49019607843137,-296.5098039215686,9.509803921568627,1.59,0.33,-1.11
1827.5,-93.49019607843137,-296.5098039215686,55.509803921568626,-1.2,0.82,-0.76
1827.55,-93.49019607843137,313.0,86.50980392156863,-1.59,0.58,-0.17
1827.6,-93.49019607843137,-296.5098039215686,55.509803921568626,-2.67,3.38,-0.27
1827.65,-108.49019607843137,-312.5098039215686,24.50980392156863,-2.81,5.27,-0.45
1827.7,-108.49019607843137,313.0,24.50980392156863,-3.13,5.44,-0.41
1827.75,-124.49019607843137,-312.5098039215686,39.509803921568626,-1.94,4.74,-0.2
1827.8,-140.49019607843138,313.0,9.509803921568627,-1.59,4.78,0.52
1827.85,-124.49019607843137,-312.5098039215686,9.509803921568627,1.38,4.15,1.75
1827.9,-61.490196078431374,-280.5098039215686,-6.490196078431373,0.47,1.07,3.15
1827.95,-77.49019607843137,313.0,39.509803921568626,0.43,-1.79,3.88
1828.0,-108.49019607843137,-280.5098039215686,24.50980392156863,1.83,-2.07,4.23
1828.05,-124.49019607843137,-280.5098039215686,24.50980392156863,2.53,-2.21,5.28
1828.1,-77.49019607843137,-296.5098039215686,9.509803921568627,5.09,-3.75,6.47
1828.15,-61.490196078431374,-280.5098039215686,9.509803921568627,4.98,-5.43,7.52
1828.2,-61.490196078431374,-296.5098039215686,55.509803921568626,3.83,-5.57,8.15
1828.25,-77.49019607843137,-296.5098039215686,24.50980392156863,3.83,-6.59,7.24
1828.3,-77.49019607843137,-247.50980392156862,39.509803921568626,2.01,-3.58,6.89
1828.35,-77.49019607843137,-247.50980392156862,24.50980392156863,0.85,-3.16,6.65
1828.4,-61.490196078431374,-280.5098039215686,55.509803921568626,-1.06,-3.79,6.3
1828.45,-61.490196078431374,-247.50980392156862,70.50980392156863,-3.2,-3.44,8.99
1828.5,-45.490196078431374,-231.50980392156862,39.509803921568626,-1.27,-5.36,11.72
1828.55,-29.49019607843137,-231.50980392156862,39.509803921568626,-0.29,-6.52,12.14
1828.6,2.5098039215686274,-214.50980392156862,-6.490196078431373,1.45,-4.98,9.38
1828.65,-29.49019607843137,-182.50980392156862,9.509803921568627,0.36,1.8,5.63
1828.7,-45.490196078431374,-165.50980392156862,-6.490196078431373,-5.33,11.64,0.45
1828.75,-29.49019607843137,-182.50980392156862,39.509803921568626,-7.89,17.41,-1.85
1828.8,2.5098039215686274,-198.50980392156862,55.509803921568626,-5.3,17.48,-4.33
1828.85,-29.49019607843137,-198.50980392156862,39.509803921568626,-7.78,11.71,-4.79
1828.9,-61.490196078431374,-214.50980392156862,55.509803921568626,-6.38,9.26,-1.43
1828.95,-29.49019607843137,-165.50980392156862,9.509803921568627,-4.91,9.85,1.89
1829.0,2.5098039215686274,-182.50980392156862,9.509803921568627,-7.19,9.08,-0.45
1829.05,-13.490196078431373,-231.50980392156862,39.509803921568626,-11.32,10.48,-2.93
1829.1,-77.49019607843137,-214.50980392156862,39.509803921568626,-6.84,13.39,-3.7
1829.15,-29.49019607843137,-198.50980392156862,-36.490196078431374,-5.05,11.95,-2.44
1829.2,18.50980392156863,-214.50980392156862,9.509803921568627,-3.44,6.11,-0.41
1829.25,-13.490196078431373,-231.50980392156862,24.50980392156863,1.87,1.52,1.96
1829.3,-13.490196078431373,-182.50980392156862,24.50980392156863,3.48,-0.22,2.94
1829.35,-45.490196078431374,-214.50980392156862,-21.49019607843137,4.11,-1.23,2.03
1829.4,-13.490196078431373,-214.50980392156862,24.50980392156863,3.55,0.05,-0.76
1829.45,-29.49019607843137,-231.50980392156862,9.509803921568627,2.57,1.94,-1.53
1829.5,-61.490196078431374,-214.50980392156862,-6.490196078431373,1.9,0.72,-2.16
1829.55,-29.49019607843137,-231.50980392156862,9.509803921568627,2.18,0.51,-1.88
1829.6,-13.490196078431373,-231.50980392156862,24.50980392156863,2.53,0.05,-1.6
1829.65,-13.490196078431373,-214.50980392156862,-6.490196078431373,0.64,0.58,-1.57
1829.7,-45.490196078431374,-214.50980392156862,-6.490196078431373,-1.34,-0.01,-2.27
1829.75,-13.490196078431373,-214.50980392156862,55.509803921568626,-0.5,1.66,-1.6
1829.8,-13.490196078431373,-231.50980392156862,-6.490196078431373,-3.02,1.42,-1.67
1829.85,-13.490196078431373,-231.50980392156862,24.50980392156863,-3.37,2.33,-2.27
1829.9,-29.49019607843137,-231.50980392156862,24.50980392156863,-3.86,2.54,-3.35
1829.95,-29.49019607843137,-214.50980392156862,24.50980392156863,-3.48,4.39,-3.39
1830.0,-29.49019607843137,-231.50980392156862,24.50980392156863,-3.55,3.34,-3.56
1830.05,-13.490196078431373,-231.50980392156862,-6.490196078431373,-2.64,2.33,-2.41
1830.1,2.5098039215686274,-214.50980392156862,-6.490196078431373,0.54,1.17,-1.46
1830.15,2.5098039215686274,-214.50980392156862,-21.49019607843137,-0.61,0.58,-0.34
1830.2,-13.490196078431373,-247.50980392156862,9.509803921568627,1.2,-0.6,-1.25
1830.25,-13.490196078431373,-214.50980392156862,-21.49019607843137,0.92,0.3,0.42
1830.3,-29.49019607843137,-214.50980392156862,-6.490196078431373,0.26,1.56,-1.6
1830.35,-13.490196078431373,-214.50980392156862,24.50980392156863,-2.04,2.92,-2.83
1830.4,2.5098039215686274,-231.50980392156862,9.509803921568627,-3.65,3.97,-3.6
1830.45,-45.490196078431374,-231.50980392156862,-6.490196078431373,-3.09,2.33,-2.34
1830.5,-29.49019607843137,-231.50980392156862,9.509803921568627,-0.64,0.65,1.26
1830.55,2.5098039215686274,-231.50980392156862,-21.49019607843137,0.54,-2.25,2.69
1830.6,2.5098039215686274,-247.50980392156862,-6.490196078431373,3.16,-2.25,3.64
1830.65,2.5098039215686274,-231.50980392156862,-21.49019607843137,2.01,-0.67,2.87
1830.7,-29.49019607843137,-214.50980392156862,-6.490196078431373,0.99,-0.74,1.68
1830.75,2.5098039215686274,-231.50980392156862,24.50980392156863,3.02,0.02,2.2
1830.8,-29.49019607843137,-214.50980392156862,-21.49019607843137,1.31,-2.0,2.34
1830.85,-13.490196078431373,-231.50980392156862,24.50980392156863,1.24,-3.23,1.82
1830.9,-45.490196078431374,-214.50980392156862,9.509803921568627,1.87,-2.74,0.8
1830.95,-29.49019607843137,-231.50980392156862,-6.490196078431373,1.62,-2.35,0.49
1831.0,-13.490196078431373,-214.50980392156862,-6.490196078431373,2.01,-3.37,0.87
1831.05,-13.490196078431373,-231.50980392156862,9.509803921568627,2.88,-3.02,0.45
1831.1,-13.490196078431373,-214.50980392156862,24.50980392156863,0.61,-1.48,-0.06
1831.15,-45.490196078431374,-231.50980392156862,24.50980392156863,-1.2,0.44,-1.25
1831.2,-29.49019607843137,-214.50980392156862,9.509803921568627,-2.99,0.12,-2.37
1831.25,2.5098039215686274,-231.50980392156862,39.509803921568626,-3.27,2.22,-1.92
1831.3,-29.49019607843137,-231.50980392156862,9.509803921568627,-3.09,2.05,-2.2
1831.35,-29.49019607843137,-231.50980392156862,9.509803921568627,-2.04,1.94,-1.64
1831.4,-13.490196078431373,-263.5098039215686,39.509803921568626,-1.1,1.66,-1.22
1831.45,-61.490196078431374,-198.50980392156862,-6.490196078431373,-0.57,1.49,-0.8
1831.5,-29.49019607843137,-214.50980392156862,9.509803921568627,-0.19,1.66,-0.94
1831.55,-13.490196078431373,-231.50980392156862,9.509803921568627,-0.15,1.21,-1.22
1831.6,-13.490196078431373,-231.50980392156862,9.509803921568627,-0.92,1.52,-1.32
1831.65,-29.49019607843137,-247.50980392156862,9.509803921568627,-0.82,1.84,-1.15
1831.7,-29.49019607843137,-231.50980392156862,9.509803921568627,-2.74,1.21,-1.39
1831.75,-13.490196078431373,-247.50980392156862,24.50980392156863,-0.75,0.93,-1.39
1831.8,-45.490196078431374,-214.50980392156862,-6.490196078431373,0.99,1.03,0.03
1831.85,-45.490196078431374,-231.50980392156862,-21.49019607843137,1.31,-0.39,0.84
1831.9,-29.49019607843137,-247.50980392156862,39.509803921568626,1.27,0.05,1.01
1831.95,-29.49019607843137,-214.50980392156862,9.509803921568627,0.71,-0.29,0.94
1832.0,-45.490196078431374,-247.50980392156862,9.509803921568627,0.43,-0.53,1.05
1832.05,-13.490196078431373,-247.50980392156862,-6.490196078431373,1.62,-0.67,1.08
1832.1,-13.490196078431373,-247.50980392156862,-6.490196078431373,0.68,-1.23,0.87
1832.15,-61.490196078431374,-214.50980392156862,-6.490196078431373,1.34,-1.69,0.7
1832.2,-29.49019607843137,-247.50980392156862,9.509803921568627,0.12,-0.71,0.17
1832.25,-45.490196078431374,-247.50980392156862,-21.49019607843137,1.48,-2.11,0.14
1832.3,-29.49019607843137,-231.50980392156862,9.509803921568627,1.17,-0.43,0.73
1832.35,-45.490196078431374,-263.5098039215686,-6.490196078431373,1.69,-1.44,0.45
1832.4,2.5098039215686274,-263.5098039215686,9.509803921568627,1.8,-0.64,0.38
1832.45,-13.490196078431373,-231.50980392156862,-21.49019607843137,0.96,-1.06,0.35
1832.5,-45.490196078431374,-247.50980392156862,-6.490196078431373,0.78,-0.57,0.52
1832.55,-45.490196078431374,-247.50980392156862,-6.490196078431373,0.68,-0.67,0.66
1832.6,-29.49019607843137,-263.5098039215686,9.509803921568627,-0.4,-0.18,0.94
1832.65,-29.49019607843137,-247.50980392156862,9.509803921568627,-0.01,0.09,0.35
1832.7,-29.49019607843137,-247.50980392156862,9.509803921568627,-2.6,1.0,0.24
1832.75,-61.490196078431374,-247.50980392156862,-6.490196078431373,-1.76,0.79,-0.41
1832.8,-29.49019607843137,-231.50980392156862,9.509803921568627,-3.44,1.98,-0.69
1832.85,-61.490196078431374,-263.5098039215686,-6.490196078431373,-3.09,2.19,-0.94
1832.9,-29.49019607843137,-263.5098039215686,-6.490196078431373,-2.99,1.0,-0.69
1832.95,-45.490196078431374,-247.50980392156862,24.50980392156863,-2.64,1.77,-1.57
1833.0,-45.490196078431374,-214.50980392156862,-21.49019607843137,-2.6,2.82,-2.13
1833.05,-45.490196078431374,-263.5098039215686,-6.490196078431373,-1.41,2.22,-1.5
1833.1,-13.490196078431373,-247.50980392156862,-6.490196078431373,-0.75,1.1,-1.04
1833.15,-29.49019607843137,-247.50980392156862,9.509803921568627,0.15,0.44,-0.31
1833.2,-29.49019607843137,-247.50980392156862,-36.490196078431374,-0.71,0.23,-0.1
1833.25,-45.490196078431374,-231.50980392156862,-6.490196078431373,-1.27,-0.57,-0.38
1833.3,-29.49019607843137,-247.50980392156862,24.50980392156863,1.13,0.65,1.08
1833.35,-13.490196078431373,-214.50980392156862,-36.490196078431374,2.15,1.03,1.26
1833.4,-13.490196078431373,-231.50980392156862,-6.490196078431373,-0.19,0.79,1.08
1833.45,-13.490196078431373,-247.50980392156862,24.50980392156863,0.19,0.86,1.26
1833.5,-29.49019607843137,-214.50980392156862,9.509803921568627,0.89,-0.43,1.68
1833.55,-45.490196078431374,-214.50980392156862,-6.490196078431373,0.12,-0.71,1.64
1833.6,-13.490196078431373,-247.50980392156862,-6.490196078431373,3.69,-1.58,2.83
1833.65,-29.49019607843137,-247.50980392156862,-21.49019607843137,4.11,-2.35,3.64
1833.7,-29.49019607843137,-231.50980392156862,-6.490196078431373,3.37,-1.97,3.67
1833.75,-29.49019607843137,-231.50980392156862,-6.490196078431373,1.55,-3.19,2.24
1833.8,-13.490196078431373,-247.50980392156862,24.50980392156863,3.65,-1.2,2.48
1833.85,-29.49019607843137,-214.50980392156862,-21.49019607843137,1.59,-1.06,1.82
1833.9,-29.49019607843137,-247.50980392156862,24.50980392156863,1.52,-1.06,0.8
1833.95,-29.49019607843137,-263.5098039215686,9.509803921568627,2.57,0.72,0.38
1834.0,-45.490196078431374,-231.50980392156862,-21.49019607843137,0.71,0.86,-0.03
1834.05,-45.490196078431374,-247.50980392156862,9.509803921568627,1.06,0.51,0.1
1834.1,-29.49019607843137,-231.50980392156862,9.509803921568627,1.52,0.16,0.66
1834.15,-29.49019607843137,-247.50980392156862,-6.490196078431373,1.66,0.68,0.87
1834.2,-45.490196078431374,-231.50980392156862,-21.49019607843137,-0.47,1.84,0.31
1834.25,-29.49019607843137,-263.5098039215686,9.509803921568627,-3.27,3.1,-1.22
1834.3,-13.490196078431373,-247.50980392156862,24.50980392156863,-4.49,2.61,-1.39
1834.35,-29.49019607843137,-247.50980392156862,9.509803921568627,-2.43,2.99,-0.66
1834.4,-29.49019607843137,-231.50980392156862,-6.490196078431373,-3.83,2.33,-0.38
1834.45,-29.49019607843137,-263.5098039215686,-6.490196078431373,-4.56,2.01,-1.64
1834.5,-13.490196078431373,-231.50980392156862,9.509803921568627,-4.11,3.17,-1.74
1834.55,-45.490196078431374,-231.50980392156862,-36.490196078431374,-2.18,1.91,-0.69
1834.6,2.5098039215686274,-214.50980392156862,-6.490196078431373,-1.27,0.09,0.91
1834.65,-13.490196078431373,-247.50980392156862,9.509803921568627,-0.08,-1.09,2.1
1834.7,-13.490196078431373,-231.50980392156862,-21.49019607843137,0.19,-1.58,2.52
1834.75,-29.49019607843137,-231.50980392156862,9.509803921568627,-1.59,-2.21,1.43
1834.8,-13.490196078431373,-263.5098039215686,9.509803921568627,1.34,-1.16,1.26
1834.85,-29.49019607843137,-231.50980392156862,-6.490196078431373,0.57,-0.74,1.4
1834.9,-45.490196078431374,-247.50980392156862,-6.490196078431373,-0.4,-1.06,1.47
1834.95,-13.490196078431373,-231.50980392156862,39.509803921568626,0.12,-1.06,1.61
1835.0,-13.490196078431373,-231.50980392156862,-6.490196078431373,1.97,-1.97,1.99
1835.05,-29.49019607843137,-231.50980392156862,-6.490196078431373,2.95,-2.25,2.9
1835.1,-45.490196078431374,-247.50980392156862,-21.49019607843137,4.35,-2.39,3.29
1835.15,-13.490196078431373,-231.50980392156862,9.509803921568627,4.07,-2.95,2.87
1835.2,-45.490196078431374,-263.5098039215686,9.509803921568627,3.27,-2.18,2.27
1835.25,-45.490196078431374,-214.50980392156862,9.509803921568627,1.48,-2.6,0.98
1835.3,-29.49019607843137,-247.50980392156862,9.509803921568627,4.07,-1.76,1.01
1835.35,-45.490196078431374,-231.50980392156862,-21.49019607843137,2.74,-0.57,1.05
1835.4,-61.490196078431374,-247.50980392156862,9.509803921568627,2.39,-1.76,1.01
1835.45,-45.490196078431374,-247.50980392156862,39.509803921568626,2.46,-0.11,0.8
1835.5,-29.49019607843137,-247.50980392156862,9.509803921568627,1.62,0.68,0.24
1835.55,-29.49019607843137,-247.50980392156862,24.50980392156863,-0.78,1.1,-0.8
1835.6,-29.49019607843137,-263.5098039215686,39.509803921568626,-2.29,2.36,-1.67
1835.65,-29.49019607843137,-231.50980392156862,9.509803921568627,-2.08,1.87,-1.29
1835.7,-45.490196078431374,-263.5098039215686,-6.490196078431373,-3.09,2.22,-1.29
1835.75,-45.490196078431374,-247.50980392156862,9.509803921568627,-4.32,1.59,-2.13
1835.8,-29.49019607843137,-247.50980392156862,39.509803921568626,-2.15,0.54,-1.15
1835.85,-45.490196078431374,-247.50980392156862,9.509803921568627,-0.68,-0.25,-0.24
1835.9,-29.49019607843137,-231.50980392156862,-6.490196078431373,-0.36,-0.53,-0.17
1835.95,-45.490196078431374,-263.5098039215686,9.509803921568627,-0.4,0.33,-1.08
1836.0,-29.49019607843137,-247.50980392156862,-6.490196078431373,-2.46,0.86,-1.6
1836.05,-45.490196078431374,-231.50980392156862,24.50980392156863,-0.57,1.07,-0.31
1836.1,-13.490196078431373,-231.50980392156862,9.509803921568627,0.96,-0.39,0.35
1836.15,-29.49019607843137,-263.5098039215686,-6.490196078431373,1.13,-0.43,1.4
1836.2,-29.49019607843137,-263.5098039215686,24.50980392156863,0.68,0.37,1.01
1836.25,-45.490196078431374,-231.50980392156862,9.509803921568627,-1.17,0.16,-0.38
1836.3,-13.490196078431373,-263.5098039215686,-6.490196078431373,0.57,0.16,0.28
1836.35,-45.490196078431374,-231.50980392156862,-21.49019607843137,2.78,-0.78,1.15
1836.4,-29.49019607843137,-231.50980392156862,9.509803921568627,2.64,-0.74,1.47
1836.45,-29.49019607843137,-263.5098039215686,9.509803921568627,3.58,-1.13,1.22
1836.5,-13.490196078431373,-231.50980392156862,9.509803921568627,3.69,-2.46,2.27
1836.55,-29.49019607843137,-247.50980392156862,9.509803921568627,5.23,-3.09,3.11
1836.6,-45.490196078431374,-231.50980392156862,9.509803921568627,4.07,-3.96,3.25
1836.65,-29.49019607843137,-263.5098039215686,39.509803921568626,2.99,-3.23,2.83
1836.7,-29.49019607843137,-247.50980392156862,9.509803921568627,1.66,-2.14,1.82
1836.75,-45.490196078431374,-263.5098039215686,24.50980392156863,-0.78,-0.85,0.03
1836.8,-29.49019607843137,-263.5098039215686,39.509803921568626,-2.46,1.45,-0.17
1836.85,-61.490196078431374,-263.5098039215686,9.509803921568627,-2.99,0.68,-0.2
1836.9,-29.49019607843137,-263.5098039215686,39.509803921568626,-3.97,1.56,-0.69
1836.95,-45.490196078431374,-263.5098039215686,9.509803921568627,-2.92,1.7,-0.45
1837.0,-29.49019607843137,-231.50980392156862,-36.490196078431374,-1.83,1.28,-0.31
1837.05,-13.490196078431373,-263.5098039215686,-6.490196078431373,-2.53,0.65,-0.17
1837.1,-45.490196078431374,-247.50980392156862,39.509803921568626,-2.11,0.44,-0.27
1837.15,-29.49019607843137,-263.5098039215686,24.50980392156863,-1.17,0.68,-0.2
1837.2,-45.490196078431374,-214.50980392156862,9.509803921568627,-3.44,-0.04,-0.52
1837.25,-29.49019607843137,-247.50980392156862,39.509803921568626,-0.54,-0.5,0.03
1837.3,-29.49019607843137,-231.50980392156862,-6.490196078431373,-0.5,-0.39,0.73
1837.35,-45.490196078431374,-263.5098039215686,9.509803921568627,0.15,-0.67,1.22
1837.4,-45.490196078431374,-247.50980392156862,9.509803921568627,0.33,-0.99,1.4
1837.45,-29.49019607843137,-247.50980392156862,24.50980392156863,1.03,-1.13,1.61
1837.5,-29.49019607843137,-231.50980392156862,9.509803921568627,1.06,-1.9,2.03
1837.55,-45.490196078431374,-247.50980392156862,24.50980392156863,1.48,-1.55,2.06
1837.6,-45.490196078431374,-231.50980392156862,24.50980392156863,2.15,-2.07,2.31
1837.65,-29.49019607843137,-231.50980392156862,24.50980392156863,1.94,-0.78,2.27
1837.7,-61.490196078431374,-247.50980392156862,24.50980392156863,-0.85,-1.37,1.01
1837.75,-45.490196078431374,-247.50980392156862,39.509803921568626,1.31,0.4,1.33
1837.8,-45.490196078431374,-214.50980392156862,-6.490196078431373,-0.26,0.33,0.98
1837.85,-61.490196078431374,-231.50980392156862,39.509803921568626,-0.75,0.44,0.66
1837.9,-29.49019607843137,-231.50980392156862,39.509803921568626,0.08,0.54,0.35
1837.95,-61.490196078431374,-247.50980392156862,9.509803921568627,0.54,0.61,1.26
1838.0,-61.490196078431374,-247.50980392156862,24.50980392156863,1.24,-0.5,2.03
1838.05,-29.49019607843137,-247.50980392156862,24.50980392156863,0.4,-0.53,2.31
1838.1,-29.49019607843137,-263.5098039215686,24.50980392156863,1.2,-0.67,2.38
1838.15,-61.490196078431374,-231.50980392156862,24.50980392156863,0.05,0.54,1.96
1838.2,-61.490196078431374,-247.50980392156862,24.50980392156863,-0.82,0.3,0.77
1838.25,-61.490196078431374,-231.50980392156862,39.509803921568626,-0.36,1.14,0.77
1838.3,-61.490196078431374,-247.50980392156862,-21.49019607843137,0.15,1.35,0.84
1838.35,-61.490196078431374,-231.50980392156862,24.50980392156863,-0.33,1.28,0.38
1838.4,-61.490196078431374,-263.5098039215686,24.50980392156863,0.47,1.8,0.07
1838.45,-45.490196078431374,-214.50980392156862,9.509803921568627,-0.12,1.28,0.1
1838.5,-45.490196078431374,-231.50980392156862,39.509803921568626,0.15,1.52,0.07
1838.55,-29.49019607843137,-247.50980392156862,24.50980392156863,0.99,0.61,0.49
1838.6,-29.49019607843137,-231.50980392156862,24.50980392156863,0.15,0.12,0.24
1838.65,-77.49019607843137,-231.50980392156862,-6.490196078431373,0.01,0.4,0.49
1838.7,-45.490196078431374,-247.50980392156862,24.50980392156863,3.58,-2.14,1.78
1838.75,-45.490196078431374,-231.50980392156862,24.50980392156863,4.32,-2.84,3.78
1838.8,-45.490196078431374,-247.50980392156862,-6.490196078431373,4.53,-4.91,3.81
1838.85,-61.490196078431374,-231.50980392156862,55.509803921568626,4.0,-3.02,3.95
1838.9,-13.490196078431373,-231.50980392156862,9.509803921568627,2.57,-2.95,2.97
1838.95,-45.490196078431374,-247.50980392156862,24.50980392156863,2.01,-2.14,2.94
1839.0,-45.490196078431374,-231.50980392156862,24.50980392156863,1.38,-1.93,2.94
1839.05,-29.49019607843137,-214.50980392156862,9.509803921568627,1.17,-1.44,2.87
1839.1,-45.490196078431374,-231.50980392156862,24.50980392156863,0.57,0.58,3.22
1839.15,-61.490196078431374,-214.50980392156862,24.50980392156863,-2.11,-0.08,1.68
1839.2,-45.490196078431374,-247.50980392156862,55.509803921568626,-2.25,1.35,1.36
1839.25,-45.490196078431374,-214.50980392156862,9.509803921568627,-1.87,0.09,1.57
1839.3,-45.490196078431374,-280.5098039215686,9.509803921568627,-2.6,0.51,0.7
1839.35,-45.490196078431374,-247.50980392156862,39.509803921568626,-2.64,1.56,-0.13
1839.4,-45.490196078431374,-231.50980392156862,-6.490196078431373,-1.94,1.84,-0.69
1839.45,-29.49019607843137,-247.50980392156862,24.50980392156863,0.4,3.2,-0.62
1839.5,-13.490196078431373,-214.50980392156862,9.509803921568627,-2.6,2.01,-1.29
1839.55,-45.490196078431374,-263.5098039215686,24.50980392156863,-1.48,1.35,-0.52
1839.6,-45.490196078431374,-214.50980392156862,9.509803921568627,-1.8,1.45,-0.31
1839.65,-29.49019607843137,-214.50980392156862,24.50980392156863,0.64,0.75,-0.06
1839.7,-13.490196078431373,-231.50980392156862,39.509803921568626,1.41,1.1,1.01
1839.75,-45.490196078431374,-231.50980392156862,9.509803921568627,1.2,0.75,0.84
1839.8,-29.49019607843137,-214.50980392156862,39.509803921568626,0.01,0.02,0.98
1839.85,-29.49019607843137,-198.50980392156862,55.509803921568626,1.38,-0.39,1.26
1839.9,-29.49019607843137,-214.50980392156862,9.509803921568627,1.06,-0.18,1.92
1839.95,-29.49019607843137,-214.50980392156862,-6.490196078431373,2.88,-1.55,2.55
1840.0,-13.490196078431373,-214.50980392156862,24.50980392156863,4.49,-1.93,3.18
1840.05,-13.490196078431373,-198.50980392156862,9.509803921568627,4.21,-2.39,3.57
1840.1,-61.490196078431374,-231.50980392156862,9.509803921568627,2.74,-1.51,3.22
1840.15,-61.490196078431374,-231.50980392156862,24.50980392156863,3.65,-1.62,2.31
1840.2,-29.49019607843137,-214.50980392156862,24.50980392156863,2.22,0.05,2.06
1840.25,-45.490196078431374,-247.50980392156862,9.509803921568627,-0.12,-0.88,1.22
1840.3,-61.490196078431374,-231.50980392156862,39.509803921568626,0.61,0.51,0.45
1840.35,-61.490196078431374,-214.50980392156862,-6.490196078431373,-0.26,1.1,0.14
1840.4,-61.490196078431374,-231.50980392156862,24.50980392156863,-1.13,0.86,0.21
1840.45,-13.490196078431373,-214.50980392156862,39.509803921568626,-0.89,0.79,-0.06
1840.5,-29.49019607843137,-231.50980392156862,24.50980392156863,-2.67,1.42,-0.8
1840.55,-13.490196078431373,-247.50980392156862,9.509803921568627,-3.44,1.8,-0.94
1840.6,-13.490196078431373,-231.50980392156862,9.509803921568627,-4.14,1.21,-1.57
1840.65,-29.49019607843137,-231.50980392156862,24.50980392156863,-3.79,3.76,-1.29
1840.7,-29.49019607843137,-231.50980392156862,-6.490196078431373,-2.78,1.66,-2.27
1840.75,-29.49019607843137,-214.50980392156862,24.50980392156863,-0.75,3.55,-3.18
1840.8,-45.490196078431374,-214.50980392156862,-21.49019607843137,-1.83,2.75,-4.96
1840.85,-45.490196078431374,-231.50980392156862,39.509803921568626,-1.52,2.75,-3.6
1840.9,-13.490196078431373,-247.50980392156862,9.509803921568627,4.42,0.93,-0.13
1840.95,18.50980392156863,-214.50980392156862,-21.49019607843137,15.83,-3.05,3.88
1841.0,-13.490196078431373,-231.50980392156862,-52.490196078431374,19.96,-5.33,7.59
1841.05,-29.49019607843137,-247.50980392156862,-6.490196078431373,20.35,-7.85,9.27
1841.1,-61.490196078431374,-231.50980392156862,9.509803921568627,15.76,-10.65,7.77
1841.15,-45.490196078431374,-263.5098039215686,55.509803921568626,12.12,-6.66,4.93
1841.2,-61.490196078431374,-247.50980392156862,55.509803921568626,-0.61,1.1,0.87
1841.25,-61.490196078431374,-263.5098039215686,55.509803921568626,-10.23,5.48,-3.25
1841.3,-29.49019607843137,-263.5098039215686,70.50980392156863,-12.02,10.03,-6.92
1841.35,-45.490196078431374,-247.50980392156862,9.509803921568627,-11.25,12.65,-6.99
1841.4,-29.49019607843137,-231.50980392156862,-21.49019607843137,-6.35,9.64,-4.58
1841.45,2.5098039215686274,-263.5098039215686,-36.490196078431374,0.22,4.88,1.08
1841.5,2.5098039215686274,-263.5098039215686,-36.490196078431374,2.81,0.79,2.48
1841.55,-13.490196078431373,-263.5098039215686,-36.490196078431374,0.08,0.61,1.12
1841.6,-45.490196078431374,-263.5098039215686,-21.49019607843137,-1.41,1.59,0.1
1841.65,-29.49019607843137,-247.50980392156862,-6.490196078431373,-1.83,2.99,-1.04
1841.7,-45.490196078431374,-263.5098039215686,-21.49019607843137,-2.57,0.44,-0.87
1841.75,-29.49019607843137,-231.50980392156862,24.50980392156863,-0.89,0.05,-0.03
1841.8,-61.490196078431374,-231.50980392156862,-52.490196078431374,1.55,-0.64,0.21
1841.85,-13.490196078431373,-263.5098039215686,-36.490196078431374,2.39,-0.64,0.35
1841.9,2.5098039215686274,-247.50980392156862,9.509803921568627,1.03,-0.11,0.87
1841.95,-29.49019607843137,-231.50980392156862,-6.490196078431373,-0.19,-1.27,0.52
1842.0,-45.490196078431374,-263.5098039215686,9.509803921568627,1.06,-0.18,0.63
1842.05,2.5098039215686274,-247.50980392156862,-21.49019607843137,-0.15,-0.18,0.66
1842.1,-29.49019607843137,-263.5098039215686,-6.490196078431373,3.58,-1.51,1.36
1842.15,113.50980392156863,248.0,-52.490196078431374,4.7,-3.47,2.52
1842.2,320.5098039215686,281.0,-144.49019607843138,-0.01,0.4,2.48
1842.25,72.01960784313725,106.98039215686275,70.50980392156863,1.52,-1.02,1.68
1842.3,-179.0,-296.5098039215686,55.509803921568626,1.17,-0.15,1.5
1842.35,-59.509803921568626,-176.0,144.01960784313727,1.1,-0.46,1.43
1842.4,-124.49019607843137,307.4901960784314,-95.0,0.78,-0.32,1.61
1842.45,231.01960784313727,-133.50980392156862,101.50980392156863,-1.2,1.42,0.7
1842.5,186.0,139.50980392156862,-175.49019607843138,-1.24,1.7,0.14
1842.55,-140.49019607843138,160.49019607843138,-36.490196078431374,-4.14,2.43,-1.53
1842.6,-54.98039215686274,-318.01960784313724,178.50980392156862,-0.68,1.8,-1.67
1842.65,-68.0,221.50980392156862,-129.49019607843138,2.57,1.73,-2.55
1842.7,177.50980392156862,-280.5098039215686,-129.49019607843138,22.31,4.22,-3.0
1842.75,-149.98039215686273,-24.019607843137255,116.50980392156863,54.54,18.71,-1.36
1842.8,193.50980392156862,-258.0,-252.49019607843138,96.19,30.47,8.85
1842.85,-100.0,52.0,159.01960784313727,121.18,61.55,-11.05
1842.9,9.019607843137255,-253.01960784313727,-267.4901960784314,140.68,70.4,-36.39
1842.95,-29.49019607843137,-111.0,-313.4901960784314,87.16,61.44,-52.32
1843.0,249.0,-7.490196078431373,-236.49019607843138,60.77,73.69,-45.67
1843.05,295.01960784313724,13.490196078431373,-206.49019607843138,57.94,50.94,-32.82
1843.1,-204.49019607843138,232.0,-67.49019607843137,43.2,28.19,-11.4
1843.15,-234.50980392156862,-203.49019607843138,-190.49019607843138,27.52,12.51,-1.39
1843.2,-29.49019607843137,-247.50980392156862,-175.49019607843138,21.01,6.91,1.99
1843.25,177.50980392156862,-160.0,-175.49019607843138,3.48,5.34,0.35
1843.3,-306.0,-225.0,-190.49019607843138,2.01,8.87,-0.87
1843.35,304.5098039215686,-176.0,-283.4901960784314,9.18,7.58,3.25
1843.4,304.5098039215686,-160.0,-298.4901960784314,5.75,13.07,2.38
1843.45,272.5098039215686,-209.0,313.01960784313724,14.64,11.57,2.73
1843.5,320.5098039215686,-209.0,298.01960784313724,7.89,10.87,4.51
1843.55,304.5098039215686,-209.0,-298.4901960784314,4.49,7.68,6.05
1843.6,-306.0,-225.0,-298.4901960784314,6.31,6.42,6.02
1843.65,304.5098039215686,-225.0,-313.4901960784314,-0.15,6.7,6.02
1843.7,-306.0,-241.0,-298.4901960784314,-3.72,3.27,5.53
1843.75,-299.4901960784314,-35.509803921568626,-175.49019607843138,-3.2,-0.39,6.4
1843.8,320.5098039215686,188.50980392156862,-267.4901960784314,-9.15,-4.24,8.47
1843.85,-107.50980392156863,308.01960784313724,252.01960784313727,-11.77,-9.67,8.96
1843.9,-61.490196078431374,-182.50980392156862,-267.4901960784314,-21.05,-14.88,0.84
1843.95,-188.49019607843138,133.0,-113.49019607843137,-34.03,-17.79,-6.64
1844.0,-123.50980392156863,243.01960784313727,-313.4901960784314,-35.5,-20.87,-18.68
1844.05,320.5098039215686,84.0,-267.4901960784314,-39.67,-24.65,-22.11
1844.1,247.01960784313727,-84.50980392156863,-129.49019607843138,-41.91,-28.88,-23.55
1844.15,154.0,-219.49019607843138,282.01960784313724,-26.3,-27.83,-22.29
1844.2,-100.0,-192.0,159.01960784313727,-42.71,-26.71,-17.14
1844.25,120.01960784313725,95.49019607843137,-221.49019607843138,-46.35,-28.88,-25.47
1844.3,288.5098039215686,58.509803921568626,-283.4901960784314,-80.97,-35.57,-29.74
1844.35,122.0,-23.49019607843137,282.01960784313724,-32.28,-35.15,-33.35
1844.4,136.01960784313727,193.49019607843138,-190.49019607843138,-91.05,-31.93,-44.65
1844.45,-140.49019607843138,-307.0,24.50980392156863,-87.23,-43.02,-59.42
1844.5,-313.5098039215686,-187.49019607843138,-252.49019607843138,-69.35,-45.68,-66.53
1844.55,-220.49019607843138,-18.50980392156863,-144.49019607843138,-81.42,-49.32,-63.17
1844.6,152.01960784313727,-296.5098039215686,70.50980392156863,-27.31,-58.77,-61.07
1844.65,170.0,-72.49019607843137,-221.49019607843138,-80.48,-58.25,-53.58
1844.7,2.5098039215686274,264.0,-144.49019607843138,-86.99,-60.24,-51.69
1844.75,-54.98039215686274,128.49019607843138,178.50980392156862,-141.48,-66.54,-51.34
1844.8,-243.0,-307.0,24.50980392156863,-204.66,-63.81,-63.66
1844.85,-29.49019607843137,183.0,193.50980392156862,-208.33,-56.43,-86.2
1844.9,-188.49019607843138,166.0,-310.0,-176.24,-43.41,-95.02
1844.95,-204.49019607843138,199.0,-156.0,-87.9,-38.44,-88.89
1845.0,-124.49019607843137,52.0,-110.0,-71.8,-18.94,-93.97
1845.05,200.01960784313727,-29.0,-33.0,-86.36,-22.41,-89.24
1845.1,279.01960784313724,-209.0,-3.0,-46.28,-3.4,-87.67
1845.15,216.01960784313727,-192.0,-203.0,-58.22,8.24,-96.56
1845.2,-315.4901960784314,319.5098039215686,-156.0,-87.65,38.06,-84.48
1845.25,120.01960784313725,-241.0,-279.0,-121.08,56.3,-57.53
1845.3,-220.49019607843138,41.509803921568626,224.50980392156862,-87.2,56.47,-50.18
1845.35,-140.49019607843138,107.50980392156863,70.50980392156863,-66.06,50.59,-49.59
1845.4,206.52941176470588,-2.5098039215686274,-233.0,-98.61,42.96,-34.57
1845.45,-16.470588235294116,-198.50980392156862,12.0,-80.9,21.72,-29.36
1845.5,57.01960784313726,221.50980392156862,-141.0,-95.84,-1.72,-19.45
1845.55,-259.0,145.01960784313727,301.5098039215686,-36.87,-47.5,6.96
1845.6,58.0,243.01960784313727,-141.0,305.56,-103.08,-43.43
1845.65,-140.49019607843138,-13.0,-73.01960784313725,233.95,146.35,73.36
1845.7,-276.98039215686276,80.01960784313725,-86.98039215686275,60.88,-82.54,39.34
1845.75,309.5882352941176,-220.01960784313727,0.49019607843137253,-7.78,-66.61,13.68
1845.8,200.01960784313727,133.0,193.50980392156862,-2.22,-70.01,30.52
1845.85,-179.0,194.01960784313727,-21.49019607843137,3.23,-43.51,26.0
1845.9,-290.0,-40.490196078431374,24.50980392156863,3.62,-37.14,28.49
1845.95,9.019607843137255,-198.50980392156862,286.5098039215686,2.11,-17.93,20.3
1846.0,-0.47058823529411764,-253.01960784313727,181.0,6.42,-11.03,20.02
1846.05,9.019607843137255,101.0,135.0,2.36,3.03,41.58
1846.1,-195.0,-268.4901960784314,255.50980392156862,13.35,2.08,47.7
1846.15,129.50980392156862,-307.0,39.509803921568626,15.45,2.78,60.13
1846.2,-213.98039215686273,291.4901960784314,-203.0,28.99,-0.92,91.21
1846.25,15.529411764705882,291.4901960784314,227.0,0.01,-0.85,165.27
1846.3,247.01960784313727,-225.0,-3.0,-5.12,-29.13,159.84
1846.35,42.0,90.50980392156863,39.509803921568626,8.55,-3.4,139.65
1846.4,88.01960784313725,209.49019607843138,-264.0,-58.46,19.3,120.61
1846.45,247.01960784313727,-2.5098039215686274,-264.0,-39.28,11.67,138.42
1846.5,-267.4901960784314,13.490196078431373,86.50980392156863,158.18,47.44,190.78
1846.55,-204.49019607843138,-307.52941176470586,-206.49019607843138,199.83,89.3,245.21
1846.6,320.5098039215686,155.98039215686273,-21.49019607843137,90.21,146.32,266.03
1846.65,90.0,187.98039215686273,316.5098039215686,55.87,191.57,246.01
1846.7,-163.0,307.4901960784314,24.50980392156863,42.82,153.42,195.12
1846.75,-4.0,-171.01960784313727,-175.49019607843138,21.82,132.74,177.34
1846.8,-84.0,-187.01960784313727,-298.4901960784314,5.19,122.69,165.55
1846.85,27.0,79.49019607843137,-206.49019607843138,79.39,128.08,155.47
1846.9,186.0,62.490196078431374,-190.49019607843138,39.81,158.04,143.6
1846.95,106.0,-231.50980392156862,-113.49019607843137,101.65,167.77,139.54
1847.0,265.0,-35.509803921568626,-52.490196078431374,84.12,196.93,136.15
1847.05,201.0,297.0,178.50980392156862,97.56,211.03,121.69
1847.1,58.0,264.0,270.5098039215686,76.35,239.03,133.56
1847.15,-4.0,84.0,-156.0,97.8,262.13,138.35
1847.2,58.0,-62.0,-33.0,123.04,269.73,123.13
1847.25,-84.0,-78.0,-199.50980392156862,102.25,276.62,90.72
1847.3,256.5098039215686,3.0,92.49019607843137,99.83,262.87,101.92
1847.35,129.50980392156862,199.0,-289.01960784313724,144.56,233.26,117.77
1847.4,-156.49019607843138,232.0,126.98039215686275,88.32,144.08,43.12
1847.45,-204.49019607843138,150.0,-238.52941176470588,-2.81,49.4,8.54
1847.5,152.01960784313727,-263.5098039215686,161.47058823529412,-108.69,-100.84,-21.17
1847.55,-292.98039215686276,-312.5098039215686,-169.54901960784315,-281.06,-239.23,-112.41
1847.6,-79.47058823529412,-198.50980392156862,-105.05882352941177,288.69,320.33,-237.92
1847.65,-0.47058823529411764,128.49019607843138,-108.54901960784314,-288.73,271.58,-272.92
1847.7,238.52941176470588,242.49019607843138,126.98039215686275,-175.92,237.35,-228.65
1847.75,-117.98039215686275,-67.50980392156863,-92.50980392156863,-27.73,236.4,-192.63
1847.8,-140.49019607843138,-35.509803921568626,-221.49019607843138,-70.78,-257.61,-126.55
1847.85,-45.490196078431374,52.0,190.01960784313727,-62.91,-172.59,-79.16
1847.9,170.0,183.0,-55.98039215686274,-18.28,-137.49,-36.46
1847.95,313.0,248.0,221.01960784313727,-19.33,-117.29,-26.8
1848.0,313.0,101.0,267.01960784313724,-64.97,-62.45,-33.38
1848.05,27.0,133.0,21.019607843137255,-13.98,-52.02,-29.11
1848.1,224.50980392156862,-214.50980392156862,-9.980392156862745,-52.06,1.45,-28.94
1848.15,81.50980392156863,101.0,232.52941176470588,37.81,67.22,-0.8
1848.2,-195.0,-296.5098039215686,-244.47058823529412,21.22,143.59,28.17
1848.25,154.0,150.0,-90.47058823529412,89.26,178.34,38.46
1848.3,-282.5098039215686,-247.50980392156862,-301.98039215686276,69.49,240.92,40.95
1848.35,186.0,313.0,21.019607843137255,39.98,272.35,78.78
1848.4,11.0,-296.5098039215686,39.509803921568626,43.55,290.52,125.23
1848.45,-52.0,297.0,-172.0,87.06,290.8,158.06
1848.5,-179.0,-312.5098039215686,135.0,134.59,296.96,166.7
1848.55,-290.0,215.0,-246.50980392156862,141.55,289.61,156.27
1848.6,-306.0,52.0,-242.01960784313727,138.09,271.51,133.17
1848.65,177.50980392156862,3.0,-181.01960784313727,167.87,233.5,111.79
1848.7,49.509803921568626,-13.0,-119.01960784313725,169.97,177.43,34.75
1848.75,-45.490196078431374,117.0,187.98039215686273,37.46,152.86,0.14
1848.8,9.019607843137255,19.0,-131.52941176470588,-107.25,22.24,-41.92
1848.85,142.52941176470588,35.0,-62.549019607843135,-187.47,-205.56,-74.82
1848.9,181.0392156862745,-274.0,206.4313725490196,314.94,247.5,-218.57
1848.95,-25.96078431372549,183.0,125.94117647058823,-269.86,201.68,-292.91
1849.0,-168.9607843137255,155.98039215686273,-100.52941176470588,-159.4,195.77,-213.39
1849.05,-238.47058823529412,-187.01960784313727,-230.50980392156862,-72.5,286.56,-138.73
1849.1,57.01960784313726,62.490196078431374,5.019607843137255,-79.78,-244.27,-114.37
1849.15,193.50980392156862,232.0,-163.98039215686273,-83.42,-171.16,-78.81
1849.2,11.0,19.0,-147.98039215686273,-11.53,-133.92,-52.21
1849.25,-43.509803921568626,19.0,-117.98039215686275,-29.9,-88.91,-61.24
1849.3,-234.50980392156862,-62.0,129.01960784313727,-3.44,-54.54,-59.56
1849.35,297.0,133.0,52.01960784313726,-60.63,-26.82,-51.65
1849.4,-195.0,232.0,-70.98039215686275,-6.1,8.77,-16.3
1849.45,65.50980392156863,-312.5098039215686,-132.98039215686273,21.57,46.15,-12.94
1849.5,-116.0,133.0,171.52941176470588,22.27,89.65,6.82
1849.55,90.0,281.0,278.52941176470586,64.97,129.69,19.56
1849.6,-154.50980392156862,183.0,-270.98039215686276,56.82,177.78,17.95
1849.65,-250.50980392156862,264.0,-70.98039215686275,62.94,216.74,43.4
1849.7,-170.50980392156862,183.0,-283.4901960784314,-7.05,254.75,82.49
1849.75,74.0,166.0,286.5098039215686,42.36,258.0,119.56
1849.8,106.0,215.0,-172.0,94.41,246.28,146.79
1849.85,106.0,101.0,166.0,133.89,237.84,129.81
1849.9,27.0,-29.0,-246.50980392156862,116.98,242.15,116.97
1849.95,-52.0,-160.0,-46.509803921568626,127.94,239.91,92.43
1850.0,-68.0,-78.0,169.49019607843138,114.46,240.29,87.81
1850.05,-306.0,35.0,230.49019607843138,153.56,201.02,76.58
1850.1,-306.0,-45.0,-212.01960784313727,131.02,191.92,-2.93
1850.15,-61.490196078431374,166.0,-319.01960784313724,0.08,181.04,-32.47
1850.2,57.01960784313726,-29.0,22.470588235294116,-158.67,97.63,-24.56
1850.25,213.0392156862745,248.0,199.45098039215685,-119.61,-257.5,-43.95
1850.3,292.03921568627453,237.50980392156862,114.43137254901961,-311.09,127.55,-192.98
1850.35,-279.96078431372547,101.0,-254.5686274509804,-169.69,55.42,-243.63
1850.4,-114.45098039215686,-160.52941176470588,-254.52941176470588,-175.75,147.4,-141.5
1850.45,-295.96078431372547,-122.01960784313725,135.0,-197.2,306.26,-103.56
1850.5,184.01960784313727,-198.50980392156862,263.52941176470586,-144.04,-224.99,-100.79
1850.55,145.50980392156862,297.0,294.52941176470586,-104.66,-153.03,-70.94
1850.6,122.0,199.0,232.52941176470588,9.6,-113.86,-33.14
1850.65,99.49019607843137,199.0,278.52941176470586,-1.97,-65.21,-27.08
1850.7,-75.50980392156863,19.0,21.019607843137255,-36.8,-32.49,-26.77
1850.75,249.0,150.0,113.01960784313725,-42.57,-11.56,-18.58
1850.8,-68.0,281.0,267.01960784313724,25.7,-13.27,-6.54
1850.85,177.50980392156862,248.0,190.01960784313727,54.75,-14.74,-6.89
1850.9,-211.0,68.0,248.52941176470588,11.04,64.87,4.93
1850.95,-36.0,3.0,294.52941176470586,66.48,109.64,12.18
1851.0,-186.50980392156862,183.0,247.52941176470588,111.17,162.94,19.32
1851.05,-139.50980392156862,133.0,-224.98039215686273,57.31,228.11,40.11
1851.1,297.0,35.0,206.01960784313727,51.18,250.34,68.39
1851.15,138.0,199.0,70.50980392156863,26.23,263.74,111.68
1851.2,106.0,19.0,-95.0,102.11,255.38,116.76
1851.25,27.0,35.0,89.0,104.84,253.59,122.57
1851.3,106.0,-160.0,-261.5098039215686,91.68,249.71,97.82
1851.35,-84.0,-143.0,0.49019607843137253,95.56,249.81,122.08
1851.4,-179.0,-62.0,153.49019607843138,129.41,229.65,128.34
1851.45,-211.0,-209.0,307.4901960784314,167.0,201.72,105.31
1851.5,161.50980392156862,-62.0,-135.01960784313727,159.3,151.85,39.79
1851.55,208.50980392156862,-127.0,3.980392156862745,65.36,120.31,-59.28
1851.6,-236.49019607843138,-62.0,18.980392156862745,-87.55,71.91,-72.16
1851.65,110.52941176470588,-13.0,87.96078431372548,-91.05,-157.05,-62.19
1851.7,245.0392156862745,-192.0,-270.5686274509804,-237.8,247.85,-195.89
1851.75,117.03921568627452,-143.0,-101.56862745098039,-234.97,158.04,-300.68
1851.8,-311.96078431372547,144.49019607843138,-66.03921568627452,-149.25,137.67,-215.73
1851.85,213.0392156862745,-106.01960784313725,46.490196078431374,-61.3,221.6,-133.9
1851.9,158.52941176470588,193.49019607843138,159.01960784313727,-89.47,-256.52,-90.26
1851.95,-61.490196078431374,297.0,-163.98039215686273,-91.57,-171.19,-46.61
1852.0,-52.0,183.0,-178.98039215686273,-12.65,-109.42,-2.93
1852.05,-154.50980392156862,68.0,-86.98039215686275,8.8,-86.7,-13.26
1852.1,-123.50980392156863,-29.0,36.01960784313726,-45.79,-57.06,-26.56
1852.15,-313.5098039215686,-62.0,190.01960784313727,-33.05,-37.88,-35.03
1852.2,201.0,35.0,144.01960784313727,-14.71,-31.82,-51.37
1852.25,-147.0,150.0,52.01960784313726,-17.23,8.7,-19.17
1852.3,-290.0,199.0,-270.98039215686276,-6.21,67.18,8.5
1852.35,-227.0,133.0,-163.98039215686273,61.02,96.34,22.78
1852.4,-313.5098039215686,264.0,263.52941176470586,72.22,156.85,28.91
1852.45,-298.5098039215686,133.0,-178.98039215686273,83.77,211.49,34.93
1852.5,-250.50980392156862,150.0,-9.980392156862745,29.31,255.66,59.6
1852.55,138.0,101.0,-52.490196078431374,71.31,270.46,83.09
1852.6,106.0,117.0,270.5098039215686,46.91,299.13,116.72
1852.65,-52.0,19.0,120.0,106.62,266.96,91.0
1852.7,138.0,3.0,15.490196078431373,51.25,255.27,99.43
1852.75,-179.0,-45.0,-319.01960784313724,59.97,229.97,132.44
1852.8,-243.0,-111.0,-227.01960784313727,136.2,204.35,143.99
1852.85,-306.0,35.0,230.49019607843138,140.4,207.29,163.06
1852.9,288.5098039215686,-78.0,-73.01960784313725,133.61,206.59,46.09
1852.95,18.50980392156863,-62.0,49.98039215686274,-22.27,176.52,14.56
1853.0,104.01960784313725,-62.0,295.98039215686276,-75.54,-22.65,-52.63
1853.05,-149.98039215686273,-225.0,149.9607843137255,-146.38,-275.42,-128.34
1853.1,-72.96078431372548,172.50980392156862,83.43137254901961,320.43,249.28,-296.09
1853.15,-263.96078431372547,-143.0,140.94117647058823,-220.58,198.64,300.4
1853.2,-56.96078431372549,-253.01960784313727,264.98039215686276,-108.23,139.94,-236.84
1853.25,-286.47058823529414,-155.01960784313727,-230.50980392156862,48.63,212.88,-149.27
1853.3,-260.98039215686276,-2.5098039215686274,278.52941176470586,-146.07,-239.09,-106.99
1853.35,-13.490196078431373,-258.0,-270.98039215686276,-86.5,-164.23,-56.13
1853.4,-298.5098039215686,297.0,201.52941176470588,-14.99,-106.44,-27.36
1853.45,-250.50980392156862,101.0,-101.98039215686275,-16.74,-67.1,-22.43
1853.5,-170.50980392156862,248.0,-132.98039215686273,-10.86,-27.73,-0.59
1853.55,-250.50980392156862,248.0,-86.98039215686275,-24.48,1.14,-0.13
1853.6,27.0,297.0,52.01960784313726,-9.15,-7.81,-7.87
1853.65,-163.0,199.0,82.01960784313725,56.54,-7.57,-26.84
1853.7,-195.0,199.0,-24.980392156862745,28.19,64.66,-6.43
1853.75,-36.0,117.0,-255.98039215686273,29.97,113.28,15.99
1853.8,-266.5098039215686,117.0,247.52941176470588,63.05,162.94,16.94
1853.85,-266.5098039215686,101.0,294.52941176470586,63.85,212.33,26.11
1853.9,233.0,183.0,6.019607843137255,31.65,265.77,72.76
1853.95,122.0,133.0,-6.490196078431373,58.53,290.8,111.61
1854.0,-36.0,101.0,-279.0,163.25,285.41,107.13
1854.05,-52.0,101.0,43.0,135.43,277.08,112.0
1854.1,-306.0,84.0,-46.509803921568626,127.87,252.65,118.51
1854.15,-211.0,84.0,-73.01960784313725,114.46,243.27,105.77
1854.2,65.50980392156863,297.0,-165.01960784313727,97.84,205.4,62.16
1854.25,-116.0,237.50980392156862,80.98039215686275,186.6,198.01,29.47
1854.3,256.5098039215686,199.0,-227.01960784313727,-44.53,268.5,28.24
1854.35,-38.98039215686274,52.0,264.98039215686276,-7.54,123.57,6.33
1854.4,-299.4901960784314,117.0,38.470588235294116,-154.71,-51.11,-40.31
1854.45,-175.47058823529412,-143.0,171.94117647058823,-200.95,235.42,-201.59
1854.5,276.03921568627453,-154.49019607843138,298.4313725490196,-292.79,137.53,-298.44
1854.55,44.549019607843135,-231.50980392156862,307.45098039215685,-166.02,113.1,-225.6
1854.6,298.54901960784315,122.98039215686275,-12.019607843137255,-23.57,234.34,-127.46
1854.65,54.03921568627451,106.98039215686275,-267.4901960784314,-108.55,-292.5,-88.96
1854.7,-140.49019607843138,166.0,-286.98039215686276,-138.61,-165.87,-33.0
1854.75,-20.0,68.0,309.52941176470586,-15.38,-123.07,-4.86
1854.8,4.490196078431373,101.0,-24.980392156862745,17.44,-93.32,6.12
1854.85,178.49019607843138,-127.0,221.01960784313727,20.94,-75.01,-13.57
1854.9,-266.5098039215686,-225.0,-221.49019607843138,-19.02,-63.04,-67.05
1854.95,186.0,-176.0,221.01960784313727,46.21,-32.0,-54.03
1855.0,304.5098039215686,-78.0,236.01960784313727,-17.44,-98.92,-19.56
1855.05,-124.49019607843137,122.98039215686275,307.078431372549,51.18,55.91,7.42
1855.1,34.509803921568626,286.5098039215686,-24.980392156862745,-21.43,107.85,6.05
1855.15,297.0,237.50980392156862,-270.98039215686276,105.64,136.45,-1.11
1855.2,-139.50980392156862,133.0,-286.98039215686276,109.0,190.0,-4.33
1855.25,-186.50980392156862,-13.0,67.01960784313725,78.55,233.36,1.68
1855.3,265.0,3.0,-21.49019607843137,32.04,257.79,16.31
1855.35,27.0,19.0,-249.0,76.49,268.68,62.37
1855.4,58.0,52.0,43.0,84.78,270.08,84.56
1855.45,-4.0,150.0,-199.50980392156862,57.83,262.62,68.98
1855.5,-36.0,-78.0,277.4901960784314,53.49,248.9,75.42
1855.55,-259.0,199.0,-227.01960784313727,70.43,239.87,138.39
1855.6,-100.0,-192.0,-58.01960784313726,260.27,205.26,142.73
1855.65,-243.0,117.0,-150.01960784313727,0.61,229.55,-9.55
1855.7,-77.49019607843137,52.0,141.98039215686273,26.44,184.12,48.47
1855.75,-22.980392156862745,133.0,22.470588235294116,-170.36,1.21,-12.28
1855.8,110.52941176470588,-241.0,199.45098039215685,-121.5,-290.26,-100.41
1855.85,229.0392156862745,-252.49019607843138,191.4313725490196,327.5,202.98,321.15
1855.9,-247.9607843137255,-258.0,-105.05882352941177,-164.55,154.36,-325.7
1855.95,314.54901960784315,-236.01960784313727,-315.52941176470586,-22.94,204.76,-183.25
1856.0,86.03921568627452,73.98039215686275,320.0,73.41,250.16,-101.35
1856.05,104.01960784313725,144.49019607843138,-86.98039215686275,-172.39,-206.16,-52.04
1856.1,-61.490196078431374,-45.0,294.52941176470586,-38.09,-159.57,-12.14
1856.15,-298.5098039215686,-198.50980392156862,201.52941176470588,-26.51,-96.12,4.79
1856.2,-123.50980392156863,52.0,-117.98039215686275,-38.23,-61.68,0.77
1856.25,-75.50980392156863,-13.0,-70.98039215686275,11.98,-44.35,-7.55
1856.3,-250.50980392156862,35.0,67.01960784313725,-22.13,-30.32,-31.46
1856.35,74.0,-78.0,206.01960784313727,-46.21,-41.62,-40.63
1856.4,-259.0,35.0,236.01960784313727,11.67,9.33,-19.84
1856.45,-306.0,52.0,-55.98039215686274,30.78,49.4,7.21
1856.5,-68.0,150.0,309.52941176470586,79.5,95.85,9.1
1856.55,265.0,183.0,201.52941176470588,63.19,153.39,22.54
1856.6,-218.50980392156862,150.0,201.52941176470588,86.6,215.02,35.14
1856.65,-313.5098039215686,150.0,-132.98039215686273,26.02,273.61,55.54
1856.7,11.0,166.0,-144.49019607843138,75.89,294.26,97.96
1856.75,11.0,232.0,255.50980392156862,119.08,-322.98,139.44
1856.8,-179.0,166.0,58.0,83.42,300.46,97.19
1856.85,-131.0,-143.0,307.4901960784314,16.71,303.57,84.91
1856.9,256.5098039215686,35.0,307.4901960784314,37.25,256.01,122.43
1856.95,320.5098039215686,-176.0,-242.01960784313727,134.59,195.91,177.41
1857.0,272.5098039215686,35.0,-227.01960784313727,198.29,151.29,216.16
1857.05,-243.0,-111.0,-165.01960784313727,251.8,104.6,84.94
1857.1,34.509803921568626,-29.0,-73.01960784313725,7.78,181.53,31.81
1857.15,-245.98039215686273,133.0,310.98039215686276,-120.55,28.96,-92.64
1857.2,222.52941176470588,-45.0,118.96078431372548,-147.5,-211.55,-158.54
1857.25,149.0392156862745,319.5098039215686,114.43137254901961,-268.18,186.35,-283.49
1857.3,-279.96078431372547,215.0,175.4313725490196,-146.21,83.24,-281.43
1857.35,-305.45098039215685,-176.52941176470588,118.96078431372548,-74.11,104.28,-166.45
1857.4,123.54901960784314,220.98039215686273,-215.50980392156862,-31.02,266.5,-103.63
1857.45,-0.47058823529411764,-198.50980392156862,-255.98039215686273,-209.63,-206.89,-57.78
1857.5,311.01960784313724,-78.0,47.529411764705884,-139.77,-154.74,-17.32
1857.55,-202.50980392156862,183.0,47.529411764705884,55.73,-123.98,0.73
1857.6,35.490196078431374,-263.5098039215686,-286.98039215686276,-21.22,-61.61,17.88
1857.65,-43.509803921568626,-111.0,6.019607843137255,16.01,-38.82,6.44
1857.7,-202.50980392156862,101.0,144.01960784313727,-41.45,-21.01,-3.88
1857.75,281.0,-62.0,-313.4901960784314,-24.06,-30.04,-23.37
1857.8,-195.0,84.0,252.01960784313727,-0.57,-19.43,-25.23
1857.85,320.5098039215686,-127.0,113.01960784313725,21.29,40.79,3.88
1857.9,288.5098039215686,52.0,-194.98039215686273,70.01,94.24,22.96
1857.95,249.0,150.0,-13.470588235294118,117.86,143.06,32.72
1858.0,-266.5098039215686,35.0,124.52941176470588,86.18,209.98,15.36
1858.05,249.0,-62.0,-255.98039215686273,25.98,265.07,40.91
1858.1,265.0,-45.0,313.01960784313724,68.16,279.67,66.29
1858.15,74.0,150.0,178.50980392156862,132.0,291.22,105.42
1858.2,-52.0,117.0,-172.0,173.09,276.1,82.21
1858.25,-211.0,297.0,-107.50980392156863,118.73,263.99,75.25
1858.3,-195.0,-62.0,-273.01960784313724,97.0,270.99,77.28
1858.35,65.50980392156863,248.0,184.49019607843138,93.46,262.27,101.99
1858.4,-45.490196078431374,183.0,-89.01960784313725,118.59,230.25,116.51
1858.45,-140.49019607843138,248.0,-73.01960784313725,156.01,202.46,131.53
1858.5,-140.49019607843138,281.0,280.98039215686276,3.23,192.1,34.96
1858.55,104.01960784313725,19.0,-115.52941176470588,-92.62,28.86,-37.48
1858.6,142.52941176470588,313.0,-0.5490196078431373,-235.7,-293.31,-173.35
1858.65,-318.47058823529414,156.50980392156862,314.4313725490196,316.93,209.87,-310.58
1858.7,-168.9607843137255,3.0,-224.5686274509804,-211.06,149.57,303.34
1858.75,92.54901960784314,-274.52941176470586,-284.52941176470586,-153.38,226.5,-210.2
1858.8,-9.96078431372549,40.98039215686274,212.0,-32.07,302.34,-116.33
1858.85,2.5098039215686274,95.49019607843137,-286.98039215686276,-138.44,-182.36,-69.05
1858.9,177.50980392156862,-13.0,-255.98039215686273,-33.82,-122.89,-20.78
1858.95,-218.50980392156862,199.0,-317.98039215686276,-10.16,-94.47,-2.09
1859.0,99.49019607843137,-160.0,221.01960784313727,27.14,-80.47,-6.92
1859.05,67.49019607843137,-94.0,252.01960784313727,8.87,-65.14,-36.78
1859.1,-266.5098039215686,-143.0,-313.4901960784314,-56.99,-51.49,-69.01
1859.15,90.0,-45.0,206.01960784313727,-32.39,-47.89,-80.77
1859.2,177.50980392156862,117.0,52.01960784313726,-32.11,-10.51,-48.99
1859.25,224.50980392156862,183.0,155.52941176470588,73.55,78.98,9.27
1859.3,-163.0,199.0,155.52941176470588,87.48,135.57,15.05
1859.35,-218.50980392156862,-13.0,140.52941176470588,100.39,211.94,6.58
1859.4,-139.50980392156862,84.0,155.52941176470588,60.88,269.73,25.65
1859.45,233.0,215.0,236.01960784313727,41.28,288.17,65.1
1859.5,233.0,-214.50980392156862,270.5098039215686,78.97,289.33,91.21
1859.55,186.0,-263.5098039215686,135.0,199.72,284.74,100.55
1859.6,-20.0,-231.50980392156862,-107.50980392156863,122.51,283.06,77.56
1859.65,-211.0,183.0,261.4901960784314,87.58,275.43,74.62
1859.7,193.50980392156862,183.0,-227.01960784313727,35.85,256.5,80.6
1859.75,65.50980392156863,84.0,-58.01960784313726,149.32,225.52,88.97
1859.8,129.50980392156862,52.0,-135.01960784313727,46.28,246.84,58.97
1859.85,152.01960784313727,-45.0,-104.01960784313725,67.39,161.93,60.37
1859.9,231.01960784313727,-231.50980392156862,187.98039215686273,-65.25,-2.07,21.45
1859.95,-260.98039215686276,166.0,-97.03921568627452,-140.68,-221.45,-66.32
1860.0,181.0392156862745,254.50980392156862,187.94117647058823,-255.37,233.99,-233.27
1860.05,-56.96078431372549,-78.0,217.94117647058823,-294.82,148.83,305.16
1860.1,-162.45098039215685,204.98039215686273,-20.03921568627451,-208.79,66.76,-163.3
1860.15,-152.9607843137255,-29.529411764705884,246.49019607843138,-23.46,201.58,-63.1
1860.2,-64.47058823529412,122.98039215686275,1.5294117647058822,-229.02,-220.96,-71.39
1860.25,34.509803921568626,-127.0,32.529411764705884,-64.9,-157.3,-36.25
1860.3,-186.50980392156862,-165.50980392156862,1.5294117647058822,2.67,-92.13,4.65
1860.35,99.49019607843137,-13.0,-147.98039215686273,8.38,-50.79,18.23
1860.4,163.49019607843138,-62.0,-24.980392156862745,24.65,-37.56,17.85
1860.45,-107.50980392156863,35.0,267.01960784313724,-12.51,-33.26,-9.02
1860.5,313.0,-78.0,-98.49019607843137,4.0,-48.97,-75.77
1860.55,-147.0,-94.0,-313.4901960784314,-58.25,-19.47,-63.9
1860.6,161.50980392156862,-111.0,175.01960784313727,-45.3,38.8,26.0
1860.65,-195.0,84.0,67.01960784313725,95.46,59.62,83.33
1860.7,122.0,-231.50980392156862,-55.98039215686274,100.15,94.2,112.49
1860.75,-282.5098039215686,-29.0,236.01960784313727,198.15,111.46,101.18
1860.8,210.49019607843138,-62.0,-252.49019607843138,122.48,155.38,84.77
1860.85,19.49019607843137,156.50980392156862,147.50980392156862,23.64,204.63,101.04
1860.9,-27.50980392156863,-89.49019607843137,101.50980392156863,113.34,209.95,106.08
1860.95,-107.50980392156863,303.5098039215686,-310.0,82.93,203.37,121.27
1861.0,-266.5098039215686,25.50980392156863,-292.5098039215686,185.23,126.89,109.48
1861.05,-154.50980392156862,156.50980392156862,30.49019607843137,155.06,87.94,58.34
1861.1,186.0,107.50980392156863,-304.01960784313724,149.43,25.29,45.08
1861.15,233.0,9.509803921568627,-42.01960784313726,102.07,-20.94,24.39
1861.2,249.0,-105.49019607843137,-196.01960784313727,142.25,-27.83,56.17
1861.25,-313.5098039215686,41.509803921568626,-146.52941176470588,104.03,-40.85,31.74
1861.3,281.0,123.50980392156863,-150.01960784313727,45.58,-33.43,-2.48
1861.35,-266.5098039215686,319.5098039215686,292.4901960784314,28.47,-8.48,-4.61
1861.4,-266.5098039215686,-307.0,92.49019607843137,-3.97,5.44,-5.17
1861.45,-186.50980392156862,303.5098039215686,138.49019607843138,7.71,3.66,-10.39
1861.5,-313.5098039215686,254.50980392156862,246.49019607843138,-31.06,4.88,6.75
1861.55,-234.50980392156862,172.50980392156862,169.49019607843138,24.79,13.74,-19.56
1861.6,-250.50980392156862,286.5098039215686,138.49019607843138,-1.76,5.55,38.57
1861.65,281.0,188.50980392156862,200.49019607843138,45.37,-12.92,13.12
1861.7,-266.5098039215686,-225.0,215.49019607843138,18.04,-7.88,14.84
1861.75,-123.50980392156863,107.50980392156863,215.49019607843138,41.63,-3.72,-44.86
1861.8,122.0,-258.0,230.49019607843138,14.33,-3.93,-40.42
1861.85,-75.50980392156863,205.50980392156862,230.49019607843138,14.92,2.47,-48.82
1861.9,-266.5098039215686,286.5098039215686,138.49019607843138,13.52,-2.77,-23.93
1861.95,-170.50980392156862,-274.0,200.49019607843138,-5.68,5.51,-9.34
1862.0,-298.5098039215686,-241.0,277.4901960784314,-46.07,0.51,42.91
1862.05,-218.50980392156862,-258.0,261.4901960784314,-12.89,3.55,47.67
1862.1,-313.5098039215686,-258.0,184.49019607843138,-1.13,-5.85,25.62
1862.15,-266.5098039215686,319.5098039215686,169.49019607843138,3.2,-14.57,16.06
1862.2,-282.5098039215686,221.50980392156862,184.49019607843138,-0.68,-9.53,10.29
1862.25,233.0,205.50980392156862,261.4901960784314,-2.57,-3.05,28.77
1862.3,-266.5098039215686,270.5098039215686,184.49019607843138,9.25,-10.23,49.35
1862.35,-202.50980392156862,107.50980392156863,138.49019607843138,28.47,-4.56,21.17
1862.4,297.0,-176.0,30.49019607843137,15.59,3.34,9.2
1862.45,-154.50980392156862,188.50980392156862,61.490196078431374,-41.56,-3.3,14.84
1862.5,-202.50980392156862,221.50980392156862,153.49019607843138,41.87,-24.61,4.86
1862.55,-313.5098039215686,-127.0,230.49019607843138,8.13,-1.16,-7.87
1862.6,313.0,237.50980392156862,92.49019607843137,5.05,11.08,-10.32
1862.65,-282.5098039215686,286.5098039215686,61.490196078431374,9.6,23.22,-8.74
1862.7,-250.50980392156862,286.5098039215686,92.49019607843137,3.09,25.5,2.62
1862.75,-202.50980392156862,286.5098039215686,184.49019607843138,-1.24,23.12,4.83
1862.8,-234.50980392156862,303.5098039215686,184.49019607843138,7.5,11.46,2.52
1862.85,-313.5098039215686,-307.0,215.49019607843138,17.23,-0.95,9.2
1862.9,-313.5098039215686,303.5098039215686,261.4901960784314,7.85,-10.65,13.58
1862.95,-282.5098039215686,286.5098039215686,292.4901960784314,3.09,-12.22,15.99
1863.0,-282.5098039215686,319.5098039215686,246.49019607843138,5.68,-11.66,11.23
1863.05,-313.5098039215686,-307.0,230.49019607843138,1.13,-6.76,7.8
1863.1,-282.5098039215686,303.5098039215686,200.49019607843138,1.2,-0.6,1.82
1863.15,-266.5098039215686,286.5098039215686,184.49019607843138,7.78,4.11,-3.63
1863.2,-282.5098039215686,303.5098039215686,215.49019607843138,1.62,6.6,-6.99
1863.25,-298.5098039215686,-307.0,200.49019607843138,-3.13,2.12,-6.5
1863.3,-266.5098039215686,319.5098039215686,230.49019607843138,1.45,-1.44,-2.48
1863.35,-266.5098039215686,-307.0,215.49019607843138,4.07,-1.58,-1.01
1863.4,-298.5098039215686,-307.0,169.49019607843138,4.6,1.24,-2.02
1863.45,-282.5098039215686,319.5098039215686,184.49019607843138,0.54,5.02,-6.82
1863.5,-298.5098039215686,-307.0,215.49019607843138,-2.15,4.32,-7.13
1863.55,-266.5098039215686,-290.0,230.49019607843138,1.38,-0.6,-7.27
1863.6,-250.50980392156862,-274.0,230.49019607843138,-6.07,-3.89,-3.21
1863.65,-266.5098039215686,-290.0,215.49019607843138,5.4,-2.7,4.41
1863.7,-282.5098039215686,-307.0,215.49019607843138,6.94,4.18,-1.25
1863.75,-298.5098039215686,303.5098039215686,138.49019607843138,0.64,8.49,-5.14
1863.8,-282.5098039215686,-290.0,200.49019607843138,-0.01,4.39,-5.31
1863.85,-250.50980392156862,303.5098039215686,246.49019607843138,-1.87,2.15,-1.92
1863.9,-282.5098039215686,-290.0,261.4901960784314,5.86,2.43,-0.2
1863.95,-298.5098039215686,-258.0,230.49019607843138,0.5,1.31,2.31
1864.0,-298.5098039215686,-241.0,230.49019607843138,-0.01,0.47,2.8
1864.05,-298.5098039215686,-307.0,261.4901960784314,1.38,2.43,1.75
1864.1,-313.5098039215686,-290.0,215.49019607843138,-0.92,2.96,0.49
1864.15,-282.5098039215686,-274.0,230.49019607843138,-0.78,0.33,0.31
1864.2,-298.5098039215686,-274.0,230.49019607843138,-1.69,-0.74,3.53
1864.25,-313.5098039215686,-274.0,230.49019607843138,-1.17,-1.76,3.32
1864.3,-313.5098039215686,-290.0,230.49019607843138,1.87,-1.41,2.38
1864.35,-298.5098039215686,319.5098039215686,246.49019607843138,0.5,1.84,0.52
1864.4,313.0,-307.0,230.49019607843138,-2.36,3.03,-1.39
1864.45,-313.5098039215686,-274.0,215.49019607843138,-1.34,0.68,-0.48
1864.5,-298.5098039215686,-258.0,246.49019607843138,-2.99,-1.72,0.84
1864.55,-298.5098039215686,-307.0,246.49019607843138,-2.39,-0.92,1.61
1864.6,-282.5098039215686,-290.0,230.49019607843138,0.22,-1.97,0.45
1864.65,-313.5098039215686,-258.0,215.49019607843138,3.44,1.98,-0.34
1864.7,-298.5098039215686,-274.0,200.49019607843138,-0.26,5.23,-2.37
1864.75,-313.5098039215686,-290.0,200.49019607843138,1.76,7.96,-2.79
1864.8,-298.5098039215686,-290.0,246.49019607843138,-1.34,4.92,-1.92
1864.85,-298.5098039215686,-290.0,261.4901960784314,-2.25,2.26,0.14
1864.9,-313.5098039215686,-290.0,230.49019607843138,0.05,-0.74,2.41
1864.95,-313.5098039215686,-274.0,215.49019607843138,1.13,-1.69,2.69
1865.0,-298.5098039215686,-274.0,215.49019607843138,-0.54,1.66,2.27
1865.05,313.0,-290.0,215.49019607843138,2.5,1.52,1.78
1865.1,-298.5098039215686,-290.0,230.49019607843138,1.27,0.79,0.56
1865.15,-282.5098039215686,-307.0,261.4901960784314,-2.57,0.4,0.8
1865.2,-313.5098039215686,-290.0,261.4901960784314,-2.25,-1.79,3.04
1865.25,313.0,-274.0,230.49019607843138,-0.15,-2.28,3.32
1865.3,-313.5098039215686,319.5098039215686,230.49019607843138,-1.06,-0.78,2.66
1865.35,313.0,-307.0,215.49019607843138,-0.64,0.26,0.73
1865.4,-313.5098039215686,319.5098039215686,230.49019607843138,-1.13,0.96,0.38
1865.45,-313.5098039215686,319.5098039215686,246.49019607843138,-0.33,0.44,0.8
1865.5,-313.5098039215686,-307.0,230.49019607843138,-1.17,-0.67,2.13
1865.55,-313.5098039215686,-307.0,246.49019607843138,-0.71,-1.79,1.71
1865.6,-298.5098039215686,-307.0,215.49019607843138,1.41,-0.74,2.13
1865.65,-313.5098039215686,-307.0,215.49019607843138,0.43,-0.04,0.1
1865.7,-313.5098039215686,-290.0,215.49019607843138,3.02,2.92,-1.57
1865.75,-313.5098039215686,-307.0,200.49019607843138,2.74,6.67,-2.37
1865.8,-313.5098039215686,-307.0,230.49019607843138,1.06,6.25,-4.37
1865.85,313.0,-290.0,215.49019607843138,-1.73,4.39,-2.02
1865.9,297.0,-290.0,246.49019607843138,-2.53,0.65,-0.2
1865.95,-298.5098039215686,-290.0,261.4901960784314,-0.54,0.16,1.61
1866.0,297.0,-290.0,246.49019607843138,-1.34,0.33,1.89
1866.05,-313.5098039215686,-307.0,246.49019607843138,3.79,-0.18,1.96
1866.1,-298.5098039215686,319.5098039215686,215.49019607843138,0.5,1.17,0.8
1866.15,313.0,319.5098039215686,246.49019607843138,-1.03,1.91,1.54
1866.2,297.0,-290.0,246.49019607843138,0.08,1.84,1.57
1866.25,313.0,-307.0,246.49019607843138,-2.04,2.29,0.56
1866.3,313.0,-307.0,230.49019607843138,-0.89,1.7,1.99
1866.35,313.0,-307.0,230.49019607843138,-1.59,-0.11,1.92
1866.4,-313.5098039215686,-274.0,261.4901960784314,-0.19,-0.43,1.92
1866.45,297.0,319.5098039215686,246.49019607843138,-3.86,3.34,2.97
1866.5,297.0,319.5098039215686,215.49019607843138,1.1,1.77,2.59
1866.55,313.0,-290.0,215.49019607843138,-1.1,0.58,1.64
1866.6,-313.5098039215686,319.5098039215686,246.49019607843138,-6.45,0.72,1.15
1866.65,313.0,319.5098039215686,246.49019607843138,-2.81,0.47,1.12
1866.7,297.0,303.5098039215686,230.49019607843138,0.5,1.87,1.78
1866.75,281.0,319.5098039215686,230.49019607843138,-0.78,1.0,1.78
1866.8,297.0,-307.0,230.49019607843138,1.31,-0.29,1.4
1866.85,297.0,303.5098039215686,230.49019607843138,1.55,1.38,-0.27
1866.9,297.0,303.5098039215686,215.49019607843138,2.74,3.62,-2.83
1866.95,313.0,319.5098039215686,215.49019607843138,1.17,6.04,-3.7
1867.0,313.0,319.5098039215686,261.4901960784314,2.04,4.71,-2.83
1867.05,297.0,-307.0,246.49019607843138,-1.59,1.28,-0.24
1867.1,297.0,-307.0,261.4901960784314,-2.74,-1.37,2.83
1867.15,297.0,319.5098039215686,261.4901960784314,-1.17,-1.79,3.78
1867.2,297.0,-307.0,261.4901960784314,-1.31,1.07,2.13
1867.25,297.0,-290.0,215.49019607843138,-4.91,2.22,1.29
1867.3,297.0,-290.0,246.49019607843138,-17.65,5.51,4.06
1867.35,265.0,-307.0,215.49019607843138,-29.97,5.9,9.8
1867.4,265.0,-290.0,184.49019607843138,-92.94,14.65,24.53
1867.45,217.0,303.5098039215686,200.49019607843138,-177.29,22.98,28.49
1867.5,201.0,90.50980392156863,77.49019607843137,-140.05,13.18,43.92
1867.55,249.0,9.509803921568627,15.490196078431373,-109.56,5.2,45.08
1867.6,186.0,-56.490196078431374,-76.50980392156863,-3.3,22.24,31.46
1867.65,138.0,-89.49019607843137,-184.50980392156862,117.33,34.18,24.46
1867.7,106.0,41.509803921568626,-215.50980392156862,147.4,20.81,9.1
1867.75,170.0,-105.49019607843137,46.490196078431374,135.85,38.87,-6.85
1867.8,27.0,74.50980392156863,107.49019607843137,143.2,44.43,-10.63
1867.85,11.0,90.50980392156863,200.49019607843138,208.58,48.98,1.29
1867.9,-36.0,319.5098039215686,169.49019607843138,152.79,28.23,3.71
1867.95,42.0,-94.0,-242.01960784313727,83.03,32.46,7.59
1868.0,-36.0,35.0,-304.01960784313724,82.68,10.1,10.39
1868.05,-195.0,-29.0,-12.019607843137255,52.97,-34.94,28.21
1868.1,58.0,150.0,-42.01960784313726,-22.41,-29.62,20.47
1868.15,-20.0,133.0,-181.01960784313727,-9.81,-21.99,22.75
1868.2,42.0,101.0,-304.01960784313724,-21.68,-10.19,18.3
1868.25,11.0,68.0,-273.01960784313724,-20.73,-5.89,6.3
1868.3,58.0,-13.0,-242.01960784313727,-6.24,3.73,3.81
1868.35,42.0,3.0,-258.01960784313724,0.26,6.77,-1.08
1868.4,27.0,35.0,277.4901960784314,-2.78,4.18,1.43
1868.45,27.0,52.0,-304.01960784313724,-2.29,1.17,2.9
1868.5,11.0,35.0,292.4901960784314,-6.38,-0.99,-2.13
1868.55,-4.0,52.0,-289.01960784313724,-12.54,1.24,-1.11
1868.6,-4.0,-13.0,307.4901960784314,-1.9,3.38,-4.89
1868.65,11.0,19.0,277.4901960784314,-8.73,0.23,0.31
1868.7,42.0,-13.0,-289.01960784313724,-1.48,0.33,-1.99
1868.75,11.0,35.0,-319.01960784313724,-14.96,-5.82,6.26
1868.8,42.0,-78.0,-319.01960784313724,2.57,-5.82,3.11
1868.85,42.0,19.0,292.4901960784314,-1.8,-5.29,2.38
1868.9,27.0,-62.0,292.4901960784314,8.48,-0.08,-2.3
1868.95,42.0,-29.0,292.4901960784314,8.24,1.14,-1.95
1869.0,42.0,-45.0,-304.01960784313724,-1.83,1.07,2.24
1869.05,42.0,3.0,-273.01960784313724,8.66,-1.65,1.92
1869.1,27.0,19.0,-304.01960784313724,-6.17,-2.32,6.82
1869.15,27.0,-45.0,-289.01960784313724,-6.66,-2.81,3.15
1869.2,27.0,-29.0,-304.01960784313724,3.41,-2.07,3.25
1869.25,27.0,-45.0,292.4901960784314,10.02,-1.83,-3.67
1869.3,58.0,-13.0,292.4901960784314,15.17,4.18,-1.78
1869.35,27.0,3.0,292.4901960784314,9.67,5.3,-7.38
1869.4,27.0,3.0,-273.01960784313724,2.74,5.55,-5.21
1869.45,27.0,35.0,-304.01960784313724,-5.65,2.54,-2.69
1869.5,27.0,19.0,-304.01960784313724,-2.99,-0.64,-0.03
1869.55,11.0,35.0,307.4901960784314,-7.5,-2.56,-0.03
1869.6,42.0,-13.0,-289.01960784313724,-6.94,1.63,-0.17
1869.65,27.0,3.0,307.4901960784314,1.62,0.75,0.03
1869.7,42.0,-13.0,-304.01960784313724,-5.09,-0.15,1.92
1869.75,42.0,-13.0,-319.01960784313724,5.05,1.35,0.31
1869.8,27.0,35.0,307.4901960784314,-3.86,0.44,1.92
1869.85,42.0,-29.0,-289.01960784313724,2.88,0.61,-0.34
1869.9,42.0,19.0,307.4901960784314,-0.92,1.21,1.64
1869.95,27.0,3.0,-319.01960784313724,1.31,1.35,-0.41
1870.0,27.0,19.0,307.4901960784314,-2.74,2.15,1.12
1870.05,27.0,3.0,-304.01960784313724,0.08,1.98,0.21
1870.1,27.0,3.0,307.4901960784314,-1.06,1.59,1.43
1870.15,27.0,-13.0,-289.01960784313724,-3.62,-0.32,1.36
1870.2,42.0,-45.0,-319.01960784313724,2.53,0.47,1.75
1870.25,27.0,3.0,292.4901960784314,1.48,1.1,0.73
1870.3,11.0,-29.0,-319.01960784313724,4.67,1.49,-0.66
1870.35,-4.0,3.0,-319.01960784313724,0.29,0.33,-1.99
1870.4,11.0,-13.0,-304.01960784313724,2.36,0.33,-2.16
1870.45,27.0,3.0,307.4901960784314,2.15,0.51,-1.25
1870.5,-4.0,19.0,-304.01960784313724,-5.79,0.12,-0.69
1870.55,27.0,-13.0,-289.01960784313724,-2.67,-0.53,-1.29
1870.6,27.0,-29.0,-319.01960784313724,-0.36,0.19,0.31
1870.65,27.0,-13.0,307.4901960784314,-3.44,-1.48,0.7
1870.7,11.0,3.0,307.4901960784314,0.29,-1.44,0.42
1870.75,42.0,19.0,307.4901960784314,-1.06,-1.41,0.52
1870.8,42.0,3.0,-304.01960784313724,1.48,0.37,0.56
1870.85,27.0,3.0,-319.01960784313724,-1.31,1.17,0.38
1870.9,27.0,-13.0,-273.01960784313724,-2.04,1.17,0.63
1870.95,27.0,3.0,-289.01960784313724,-6.45,-0.04,1.85
1871.0,27.0,3.0,307.4901960784314,-4.74,0.72,2.13
1871.05,42.0,3.0,-304.01960784313724,-7.61,0.86,3.36
1871.1,27.0,-45.0,-304.01960784313724,-0.75,-0.11,1.15
1871.15,27.0,-13.0,307.4901960784314,3.58,0.4,-0.2
1871.2,27.0,-29.0,-319.01960784313724,2.78,1.52,0.07
1871.25,42.0,-13.0,-319.01960784313724,-0.33,1.14,0.45
1871.3,27.0,-13.0,-304.01960784313724,0.75,1.35,0.87
1871.35,27.0,-29.0,-319.01960784313724,0.33,0.47,1.08
1871.4,27.0,-45.0,307.4901960784314,-0.36,1.38,1.26
1871.45,27.0,-13.0,292.4901960784314,4.42,2.01,0.03
1871.5,27.0,-13.0,307.4901960784314,3.02,2.64,0.03
1871.55,27.0,-29.0,307.4901960784314,-0.01,1.73,-2.02
1871.6,27.0,-13.0,-319.01960784313724,1.8,-0.43,-1.01
1871.65,42.0,3.0,-319.01960784313724,-2.67,0.79,-0.66
1871.7,-20.0,-13.0,-319.01960784313724,3.16,-0.04,-1.25
1871.75,11.0,-13.0,-304.01960784313724,-5.16,-0.85,-1.04
1871.8,27.0,-29.0,307.4901960784314,0.54,-0.85,-1.15
1871.85,27.0,-29.0,-304.01960784313724,-2.71,0.54,-0.17
1871.9,-4.0,-45.0,-319.01960784313724,1.97,0.23,-1.39
1871.95,27.0,-29.0,-319.01960784313724,0.85,0.26,-1.15
1872.0,11.0,-29.0,-304.01960784313724,0.96,0.65,-0.17
1872.05,11.0,-29.0,-319.01960784313724,-3.2,0.44,1.4
1872.1,11.0,-29.0,-319.01960784313724,-3.48,0.12,1.29
1872.15,11.0,3.0,-319.01960784313724,-0.78,2.01,0.17
1872.2,11.0,-13.0,307.4901960784314,-4.7,0.89,3.01
1872.25,27.0,-62.0,-289.01960784313724,-3.58,-0.32,1.01
1872.3,27.0,-13.0,307.4901960784314,-1.03,-0.43,2.27
1872.35,42.0,-45.0,292.4901960784314,3.23,1.21,1.22
1872.4,-4.0,-45.0,277.4901960784314,1.27,0.16,0.35
1872.45,11.0,-45.0,-304.01960784313724,-0.64,0.61,1.05
1872.5,11.0,-13.0,-319.01960784313724,2.15,1.24,0.94
1872.55,27.0,-45.0,307.4901960784314,2.15,2.15,0.7
1872.6,27.0,-45.0,-319.01960784313724,4.46,2.96,0.52
1872.65,27.0,-29.0,-319.01960784313724,15.94,3.03,-2.13
1872.7,11.0,-13.0,292.4901960784314,10.41,4.64,-0.73
1872.75,-4.0,-45.0,-319.01960784313724,10.51,3.1,-3.7
1872.8,-4.0,3.0,-319.01960784313724,1.24,0.79,-0.17
1872.85,11.0,3.0,292.4901960784314,-0.92,-1.76,-0.13
1872.9,-20.0,3.0,-319.01960784313724,2.43,-1.58,-0.24
1872.95,-20.0,35.0,-289.01960784313724,1.8,-0.71,-0.06
1873.0,11.0,19.0,-304.01960784313724,17.06,0.65,-1.85
1873.05,-4.0,35.0,-319.01960784313724,59.48,0.26,-6.05
1873.1,11.0,19.0,292.4901960784314,73.02,4.15,-8.36
1873.15,27.0,117.0,-319.01960784313724,38.58,4.01,-6.64
1873.2,-4.0,52.0,292.4901960784314,34.21,1.59,-6.12
1873.25,-20.0,183.0,307.4901960784314,14.12,2.12,-0.83
1873.3,-20.0,183.0,-304.01960784313724,-4.56,0.47,1.82
1873.35,-4.0,166.0,307.4901960784314,3.79,-1.06,0.31
1873.4,-20.0,232.0,277.4901960784314,-3.09,1.28,0.87
1873.45,-20.0,183.0,292.4901960784314,3.79,1.38,-0.1
1873.5,-20.0,183.0,-319.01960784313724,5.23,1.17,-0.73
1873.55,-4.0,232.0,292.4901960784314,-5.96,0.72,2.2
1873.6,-4.0,166.0,292.4901960784314,6.14,-0.5,-0.06
1873.65,-20.0,232.0,277.4901960784314,-2.01,1.35,2.06
1873.7,-20.0,166.0,292.4901960784314,6.07,0.16,-1.29
1873.75,-20.0,232.0,292.4901960784314,-6.66,1.21,1.57
1873.8,-4.0,183.0,307.4901960784314,4.91,-0.71,0.35
1873.85,-20.0,232.0,277.4901960784314,0.68,1.03,1.96
1873.9,-20.0,183.0,261.4901960784314,2.81,1.17,1.15
1873.95,-4.0,183.0,277.4901960784314,0.75,2.12,0.42
1874.0,-4.0,183.0,292.4901960784314,-0.99,2.08,-0.52
1874.05,-20.0,199.0,307.4901960784314,-0.78,1.14,-0.45
1874.1,-20.0,215.0,292.4901960784314,-9.57,-1.09,-0.1
1874.15,-36.0,199.0,277.4901960784314,-64.34,-3.96,10.11
1874.2,-20.0,166.0,307.4901960784314,-35.85,-6.55,4.79
1874.25,-36.0,183.0,246.49019607843138,-58.6,-2.81,11.97
1874.3,-4.0,52.0,-258.01960784313724,-53.04,-2.53,4.62
1874.35,-20.0,84.0,-319.01960784313724,-12.96,-2.95,1.12
1874.4,11.0,35.0,-289.01960784313724,-12.37,-0.29,2.9
1874.45,-4.0,3.0,307.4901960784314,-3.3,0.65,-0.27
1874.5,11.0,19.0,-319.01960784313724,-1.31,0.26,0.17
1874.55,27.0,3.0,-319.01960784313724,-3.51,-0.29,1.01
1874.6,-4.0,3.0,-304.01960784313724,-8.38,0.09,2.27
1874.65,-4.0,-29.0,-304.01960784313724,-7.99,-0.04,1.92
1874.7,-4.0,-29.0,-319.01960784313724,-3.97,0.4,2.1
1874.75,-4.0,-29.0,-319.01960784313724,-3.44,1.77,1.82
1874.8,-4.0,-13.0,-304.01960784313724,-3.76,0.12,0.94
1874.85,11.0,-29.0,-319.01960784313724,-3.62,0.33,1.92
1874.9,-36.0,-29.0,-304.01960784313724,-3.09,-0.57,1.29
1874.95,-20.0,-29.0,-319.01960784313724,-3.3,0.09,2.06
1875.0,11.0,-45.0,307.4901960784314,-0.78,1.07,1.64
1875.05,11.0,-29.0,-319.01960784313724,-2.11,0.37,0.63
1875.1,-4.0,-62.0,-319.01960784313724,1.34,0.96,0.94
1875.15,-4.0,-45.0,292.4901960784314,-1.03,1.1,0.87
1875.2,11.0,-45.0,307.4901960784314,2.53,1.66,-0.34
1875.25,11.0,-29.0,-304.01960784313724,-0.85,1.17,0.63
1875.3,-36.0,-45.0,-304.01960784313724,-0.78,0.61,-0.59
1875.35,-4.0,-45.0,-319.01960784313724,1.62,-0.39,0.73
1875.4,-4.0,-29.0,-319.01960784313724,-2.67,-2.81,-0.41
1875.45,11.0,-62.0,-304.01960784313724,2.43,-1.16,0.8
1875.5,-20.0,-29.0,277.4901960784314,1.48,-1.79,0.49
1875.55,-4.0,-45.0,-319.01960784313724,22.17,-0.64,-2.13
1875.6,-4.0,-29.0,-319.01960784313724,1.24,0.54,-2.09
1875.65,11.0,-29.0,-319.01960784313724,-1.34,1.31,-0.8
1875.7,11.0,-29.0,307.4901960784314,11.63,-0.08,-0.24
1875.75,-4.0,19.0,-289.01960784313724,-9.18,-1.83,2.41
1875.8,11.0,-45.0,307.4901960784314,9.22,-2.14,1.54
1875.85,-4.0,3.0,-319.01960784313724,-4.07,-0.99,0.63
1875.9,27.0,-45.0,-319.01960784313724,6.24,2.75,-1.29
1875.95,-20.0,19.0,292.4901960784314,-11.11,0.68,0.24
1876.0,27.0,-13.0,-289.01960784313724,-0.05,-1.97,0.98
1876.05,11.0,-29.0,-319.01960784313724,-0.4,-0.46,2.1
1876.1,-4.0,-29.0,307.4901960784314,4.7,0.47,0.21
1876.15,11.0,-45.0,292.4901960784314,5.93,0.54,0.31
1876.2,11.0,-45.0,-289.01960784313724,1.59,2.15,0.1
1876.25,-20.0,-29.0,307.4901960784314,3.93,0.02,0.66
1876.3,-4.0,3.0,307.4901960784314,-2.78,-1.06,2.41
1876.35,-4.0,-13.0,-319.01960784313724,1.62,0.51,0.59
1876.4,-4.0,19.0,-319.01960784313724,-2.46,1.07,1.26
1876.45,11.0,-45.0,-304.01960784313724,1.52,1.94,-0.31
1876.5,-4.0,-13.0,292.4901960784314,1.94,0.33,0.87
1876.55,-4.0,-29.0,307.4901960784314,1.62,-0.5,1.89
1876.6,11.0,3.0,-319.01960784313724,6.1,0.3,0.38
1876.65,11.0,-13.0,307.4901960784314,2.04,0.44,0.0
1876.7,-4.0,-29.0,-319.01960784313724,0.85,-0.95,-0.27
1876.75,11.0,3.0,-304.01960784313724,1.69,-1.23,0.07
1876.8,11.0,-13.0,307.4901960784314,6.73,-0.32,-1.11
1876.85,-4.0,19.0,-319.01960784313724,5.3,0.19,0.21
1876.9,-4.0,19.0,-289.01960784313724,2.46,-0.67,0.35
1876.95,11.0,-13.0,-304.01960784313724,11.18,-0.67,-0.69
1877.0,11.0,3.0,292.4901960784314,-6.45,-0.85,-0.55
1877.05,27.0,3.0,-304.01960784313724,-2.29,0.09,2.69
1877.1,11.0,3.0,-304.01960784313724,13.8,0.93,-3.18
1877.15,-20.0,68.0,-319.01960784313724,0.61,1.59,-0.27
1877.2,11.0,3.0,-289.01960784313724,7.78,0.89,-1.64
1877.25,-4.0,52.0,-319.01960784313724,1.66,-0.04,0.03
1877.3,11.0,19.0,292.4901960784314,6.73,-0.5,1.47
1877.35,11.0,3.0,307.4901960784314,9.81,-0.64,1.64
1877.4,-4.0,19.0,-273.01960784313724,8.83,0.47,-1.29
1877.45,11.0,52.0,-304.01960784313724,5.86,0.79,-1.11
1877.5,-4.0,52.0,-304.01960784313724,-19.61,1.52,-0.52
1877.55,-20.0,35.0,-289.01960784313724,-6.35,-0.46,0.17
1877.6,11.0,19.0,-319.01960784313724,17.27,1.42,-1.88
1877.65,-20.0,84.0,292.4901960784314,7.29,1.07,0.91
1877.7,11.0,19.0,-304.01960784313724,11.25,0.02,-0.83
1877.75,-4.0,68.0,-319.01960784313724,1.8,-1.23,6.02
1877.8,27.0,35.0,307.4901960784314,6.03,-0.95,2.38
1877.85,27.0,84.0,292.4901960784314,5.3,0.37,3.01
1877.9,-4.0,52.0,307.4901960784314,-3.79,3.87,3.29
1877.95,27.0,101.0,-319.01960784313724,-11.91,5.58,-3.35
1878.0,-4.0,101.0,-273.01960784313724,-26.19,9.57,-5.56
1878.05,-36.0,52.0,-289.01960784313724,-21.29,18.29,-15.18
1878.1,-20.0,84.0,-273.01960784313724,-30.22,17.31,-16.76
1878.15,11.0,-13.0,-242.01960784313727,-64.34,18.29,-13.29
1878.2,-20.0,-13.0,-242.01960784313727,-113.94,9.08,-10.6
1878.25,-36.0,-78.0,-212.01960784313727,-141.31,-2.25,-12.21
1878.3,-52.0,-127.0,-319.01960784313724,-152.93,-12.75,0.14
1878.35,-20.0,270.5098039215686,230.49019607843138,-98.96,-3.33,3.81
1878.4,-36.0,-225.0,107.49019607843137,-111.49,-14.01,3.18
1878.45,-20.0,221.50980392156862,92.49019607843137,-46.21,-35.11,23.24
1878.5,-4.0,107.50980392156863,153.49019607843138,29.69,-16.35,-2.16
1878.55,-20.0,188.50980392156862,138.49019607843138,-14.15,-17.96,11.23
1878.6,-36.0,-138.49019607843138,-242.01960784313727,30.57,-25.66,3.5
1878.65,11.0,58.509803921568626,215.49019607843138,38.41,-26.68,2.76
1878.7,27.0,9.509803921568627,230.49019607843138,39.56,-20.31,7.63
1878.75,11.0,123.50980392156863,200.49019607843138,9.92,-4.21,13.65
1878.8,-20.0,172.50980392156862,230.49019607843138,31.48,-5.29,2.83
1878.85,27.0,156.50980392156862,230.49019607843138,50.76,-12.92,7.03
1878.9,27.0,9.509803921568627,230.49019607843138,83.14,-12.4,-7.52
1878.95,11.0,254.50980392156862,200.49019607843138,62.45,3.69,-6.08
1879.0,-20.0,205.50980392156862,169.49019607843138,47.61,26.55,-4.26
1879.05,11.0,303.5098039215686,200.49019607843138,61.82,27.6,-7.8
1879.1,42.0,-258.0,277.4901960784314,70.26,32.43,-2.02
1879.15,-20.0,-258.0,292.4901960784314,54.16,24.55,-1.95
1879.2,11.0,-192.0,307.4901960784314,26.54,11.39,-8.85
1879.25,-36.0,-192.0,-304.01960784313724,23.01,13.91,13.3
1879.3,-84.0,-209.0,-258.01960784313724,26.33,-1.51,-7.48
1879.35,-52.0,19.0,-289.01960784313724,10.48,6.84,3.53
1879.4,-52.0,-143.0,-289.01960784313724,9.95,2.82,-15.74
1879.45,-68.0,-62.0,-319.01960784313724,5.4,-6.31,-18.79
1879.5,-84.0,-192.0,-119.01960784313725,-38.34,-24.05,-24.11
1879.55,-36.0,286.5098039215686,95.98039215686275,-3.58,-41.27,-51.37
1879.6,-36.0,-13.0,-273.01960784313724,-13.42,-30.53,-62.29
1879.65,-20.0,-13.0,215.49019607843138,-3.02,-6.66,-40.03
1879.7,-20.0,35.0,153.49019607843138,-3.69,1.66,-28.31
1879.75,-4.0,-13.0,200.49019607843138,12.02,3.76,-27.71
1879.8,27.0,-111.0,277.4901960784314,13.98,-20.73,-23.83
1879.85,90.0,-192.0,-242.01960784313727,-31.86,-41.59,-11.05
1879.9,90.0,-45.0,-196.01960784313727,-70.43,-53.8,-24.07
1879.95,74.0,35.0,-104.01960784313725,-32.7,-4.73,-33.07
1880.0,-100.0,-45.0,77.49019607843137,3.69,6.42,-28.06
1880.05,42.0,-143.0,61.490196078431374,-24.83,-11.17,-4.44
1880.1,170.0,-307.0,277.4901960784314,9.22,10.52,-5.66
1880.15,58.0,-192.0,138.49019607843138,7.75,-8.79,3.99
1880.2,201.0,-62.0,292.4901960784314,-2.29,32.88,20.89
1880.25,201.0,-111.0,261.4901960784314,35.82,18.99,16.76
1880.3,-298.5098039215686,-192.0,184.49019607843138,28.05,22.42,12.98
1880.35,217.0,-258.0,246.49019607843138,1.06,39.88,-4.12
1880.4,170.0,-192.0,200.49019607843138,27.94,54.97,11.58
1880.45,106.0,-94.0,200.49019607843138,29.2,63.58,15.43
1880.5,58.0,-78.0,184.49019607843138,50.2,69.04,22.19
1880.55,-20.0,-62.0,200.49019607843138,71.8,58.33,18.13
1880.6,-100.0,3.0,-304.01960784313724,41.77,43.98,20.05
1880.65,-179.0,35.0,-227.01960784313727,36.8,30.99,21.8
1880.7,-275.0,150.0,-196.01960784313727,52.06,13.81,8.08
1880.75,272.5098039215686,101.0,-181.01960784313727,-16.85,-24.02,21.94
1880.8,-211.0,84.0,3.980392156862745,-20.77,-18.45,15.57
1880.85,-306.0,183.0,-273.01960784313724,-16.81,-15.48,8.68
1880.9,-163.0,117.0,307.4901960784314,9.32,-5.36,4.72
1880.95,-179.0,101.0,246.49019607843138,23.71,0.23,-2.93
1881.0,-179.0,117.0,292.4901960784314,0.71,-7.78,-0.27
1881.05,-100.0,101.0,-273.01960784313724,-23.6,-15.97,-0.62
1881.1,-116.0,117.0,-289.01960784313724,-36.8,-5.92,11.44
1881.15,-116.0,-45.0,-273.01960784313724,3.65,1.7,1.05
1881.2,-84.0,19.0,184.49019607843138,9.6,8.45,6.89
1881.25,-52.0,-62.0,246.49019607843138,18.07,5.2,4.2
1881.3,-68.0,19.0,292.4901960784314,12.54,-0.04,8.71
1881.35,-116.0,117.0,-273.01960784313724,-6.77,-1.37,13.61
1881.4,-147.0,84.0,-273.01960784313724,-5.3,-4.38,11.55
1881.45,-116.0,101.0,-319.01960784313724,6.87,-2.25,6.93
1881.5,-163.0,84.0,277.4901960784314,5.02,-2.07,-0.24
1881.55,-163.0,52.0,307.4901960784314,6.21,5.86,-6.4
1881.6,-179.0,101.0,-273.01960784313724,-5.44,13.18,-13.64
1881.65,-195.0,133.0,-289.01960784313724,-14.33,4.29,-15.5
1881.7,-147.0,84.0,-319.01960784313724,-9.57,-0.04,-12.35
1881.75,-131.0,35.0,307.4901960784314,-9.36,-3.3,-3.21
1881.8,-131.0,19.0,292.4901960784314,7.78,-6.31,-0.41
1881.85,-116.0,52.0,246.49019607843138,10.06,-8.16,5.32
1881.9,-68.0,52.0,307.4901960784314,5.16,-4.87,8.08
1881.95,-116.0,101.0,-304.01960784313724,3.51,-3.79,11.55
1882.0,-36.0,68.0,-289.01960784313724,-2.67,-2.88,17.36
1882.05,-52.0,84.0,-319.01960784313724,-2.29,0.09,13.86
1882.1,-100.0,133.0,-319.01960784313724,-7.85,2.92,5.88
1882.15,-116.0,101.0,-289.01960784313724,-11.67,10.69,-3.63
1882.2,-195.0,101.0,-273.01960784313724,-14.43,10.73,-8.25
1882.25,-195.0,52.0,307.4901960784314,-10.86,7.47,-9.48
1882.3,-163.0,35.0,277.4901960784314,-3.55,3.9,-8.53
1882.35,-131.0,19.0,277.4901960784314,2.95,-3.44,1.82
1882.4,-100.0,-45.0,292.4901960784314,9.29,-4.56,9.73
1882.45,-100.0,35.0,277.4901960784314,9.15,-4.98,10.57
1882.5,-131.0,19.0,246.49019607843138,13.84,-6.06,5.74
1882.55,-163.0,101.0,307.4901960784314,-0.47,-3.19,0.45
1882.6,-195.0,101.0,-242.01960784313727,-6.38,0.16,-8.74
1882.65,-211.0,101.0,-273.01960784313724,-6.8,1.94,-8.81
1882.7,-163.0,52.0,-289.01960784313724,-9.46,1.38,-6.01
1882.75,-131.0,68.0,292.4901960784314,-2.5,-2.67,-4.47
1882.8,-100.0,35.0,261.4901960784314,-1.52,-3.75,0.91
1882.85,-68.0,19.0,-319.01960784313724,3.48,-2.95,3.53
1882.9,-68.0,52.0,292.4901960784314,2.36,-3.65,6.09
1882.95,-52.0,3.0,292.4901960784314,9.99,-1.55,4.51
1883.0,-68.0,35.0,307.4901960784314,10.06,4.99,6.4
1883.05,-116.0,52.0,307.4901960784314,6.94,1.07,2.73
1883.1,-131.0,101.0,-304.01960784313724,-5.3,-0.88,2.55
1883.15,-147.0,101.0,-289.01960784313724,-10.83,1.77,-3.25
1883.2,-147.0,84.0,-319.01960784313724,-5.4,3.1,-4.47
1883.25,-131.0,84.0,292.4901960784314,-8.17,4.74,-2.48
1883.3,-116.0,19.0,-304.01960784313724,-1.17,4.08,-1.85
1883.35,-131.0,52.0,292.4901960784314,-1.66,-0.29,1.89
1883.4,-131.0,19.0,-319.01960784313724,-4.07,-1.3,4.06
1883.45,-116.0,35.0,-319.01960784313724,1.38,0.51,1.26
1883.5,-131.0,35.0,277.4901960784314,2.85,4.39,-0.13
1883.55,-100.0,3.0,292.4901960784314,1.41,8.07,1.29
1883.6,-147.0,35.0,307.4901960784314,4.6,2.19,-1.74
1883.65,-163.0,68.0,307.4901960784314,-2.46,-1.79,0.0
1883.7,-179.0,35.0,-304.01960784313724,-8.69,-0.88,1.85
1883.75,-163.0,35.0,-319.01960784313724,-1.87,-0.78,-0.76
1883.8,-147.0,35.0,292.4901960784314,4.11,-0.53,-1.99
1883.85,-116.0,19.0,292.4901960784314,-4.11,2.82,3.29
1883.9,-131.0,19.0,-304.01960784313724,2.18,-0.11,-0.59
1883.95,-147.0,52.0,277.4901960784314,8.48,-2.39,1.99
1884.0,-131.0,35.0,261.4901960784314,-1.1,-0.15,0.56
1884.05,-147.0,19.0,-304.01960784313724,0.71,0.89,-1.46
1884.1,-163.0,19.0,-319.01960784313724,-2.22,0.4,-0.66
1884.15,-116.0,35.0,292.4901960784314,-0.78,0.65,-0.76
1884.2,-147.0,52.0,307.4901960784314,3.09,-2.04,-1.11
1884.25,-116.0,52.0,277.4901960784314,-3.65,-2.49,1.26
1884.3,-131.0,35.0,-273.01960784313724,1.83,2.12,-0.06
1884.35,-147.0,52.0,307.4901960784314,2.46,-0.04,-0.2
1884.4,-131.0,35.0,292.4901960784314,-1.27,-0.36,2.06
1884.45,-131.0,35.0,-304.01960784313724,1.87,-0.6,2.41
1884.5,-147.0,35.0,292.4901960784314,2.39,-1.51,1.26
1884.55,-147.0,35.0,292.4901960784314,1.83,0.89,2.55
1884.6,-147.0,52.0,-289.01960784313724,-6.1,1.21,0.98
1884.65,-147.0,35.0,-319.01960784313724,-2.39,2.05,-1.08
1884.7,-163.0,68.0,-319.01960784313724,-10.93,-0.15,1.78
1884.75,-147.0,52.0,-289.01960784313724,1.13,1.77,-0.66
1884.8,-131.0,35.0,277.4901960784314,-0.54,0.23,1.64
1884.85,-131.0,3.0,277.4901960784314,2.57,1.28,1.61
1884.9,-116.0,52.0,292.4901960784314,3.55,-0.11,-0.59
1884.95,-163.0,19.0,292.4901960784314,-2.71,0.65,0.42
1885.0,-147.0,19.0,-289.01960784313724,-2.88,1.94,-0.59
1885.05,-147.0,52.0,307.4901960784314,0.5,1.03,-0.52
1885.1,-131.0,3.0,-319.01960784313724,-2.08,0.68,1.61
1885.15,-116.0,19.0,307.4901960784314,3.09,1.28,2.59
1885.2,-131.0,35.0,292.4901960784314,5.19,-2.42,1.08
1885.25,-163.0,35.0,277.4901960784314,6.63,-2.67,1.43
1885.3,-147.0,84.0,-319.01960784313724,-3.83,-0.36,-2.44
1885.35,-131.0,35.0,-289.01960784313724,-2.29,0.19,-2.69
1885.4,-147.0,52.0,-289.01960784313724,-3.9,1.59,-0.03
1885.45,-116.0,3.0,307.4901960784314,3.02,-0.36,0.42
1885.5,-147.0,19.0,246.49019607843138,7.57,-3.68,1.26
1885.55,-131.0,52.0,292.4901960784314,-3.65,-2.67,2.34
1885.6,-147.0,52.0,-289.01960784313724,-4.74,-1.48,-1.32
1885.65,-163.0,52.0,-258.01960784313724,-12.89,1.21,-0.48
1885.7,-100.0,3.0,-289.01960784313724,-0.36,2.71,-1.08
1885.75,-116.0,3.0,246.49019607843138,10.62,-0.67,1.26
1885.8,-116.0,-13.0,261.4901960784314,2.5,1.77,5.18
1885.85,-147.0,19.0,-304.01960784313724,3.13,-0.53,0.35
1885.9,-163.0,52.0,-289.01960784313724,-6.21,1.17,-0.24
