rel_time,acc_x,acc_y,acc_z,gyro_x,gyro_y,gyro_z
1.0,58.0,188.50980392156862,-221.49019607843138,27.66,-4.02,-47.57
1.05,-179.0,84.0,-113.49019607843137,34.1,-15.81,-41.51
1.1,258.4901960784314,308.01960784313724,298.01960784313724,13.59,-3.35,-31.33
1.15,320.5098039215686,215.0,298.01960784313724,-9.5,-12.24,-6.44
1.2,-91.50980392156863,210.01960784313727,-283.4901960784314,23.14,-24.49,-1.68
1.25,306.4901960784314,80.01960784313725,159.01960784313727,0.32,-9.06,11.96
1.3,-163.0,-127.0,-117.98039215686275,-1.7,-5.17,3.84
1.35,-245.98039215686273,-18.50980392156863,217.52941176470588,-14.33,1.47,-1.19
1.4,-282.5098039215686,-148.98039215686273,224.50980392156862,-6.74,1.68,-6.3
1.45,163.49019607843138,-105.49019607843137,-113.49019607843137,6.13,-1.22,-9.77
1.5,-204.49019607843138,-182.50980392156862,-252.49019607843138,1.16,7.63,-3.96
1.55,-131.0,-138.49019607843138,-283.4901960784314,-5.97,9.1,1.7
1.6,-170.50980392156862,161.01960784313727,113.01960784313725,16.88,-7.41,19.38
1.65,-306.0,-247.50980392156862,-298.4901960784314,9.18,-6.96,4.82
1.7,256.5098039215686,-127.0,-129.49019607843138,3.89,-1.22,2.16
1.75,178.49019607843138,47.01960784313726,252.01960784313727,-14.89,-1.22,1.04
1.8,-84.0,-127.0,-313.4901960784314,-1.49,-8.01,-5.64
1.85,-61.490196078431374,313.0,-190.49019607843138,-3.34,0.84,-7.63
1.9,-266.5098039215686,31.019607843137255,236.01960784313727,5.57,-0.17,-8.09
1.95,233.0,139.50980392156862,175.01960784313727,-1.07,-2.02,0.69
2.0,-61.490196078431374,-182.50980392156862,-98.49019607843137,26.12,-8.95,-0.39
2.05,297.0,-187.49019607843138,-267.4901960784314,-3.24,-2.41,4.99
2.1,-27.50980392156863,-268.4901960784314,190.01960784313727,11.56,1.19,12.38
2.15,2.5098039215686274,-116.50980392156863,-221.49019607843138,-12.69,-1.53,21.02
2.2,-68.0,-7.490196078431373,-129.49019607843138,20.45,-5.03,34.71
2.25,-266.5098039215686,9.509803921568627,206.01960784313727,-2.19,0.03,-13.86
2.3,-68.0,-290.0,-236.49019607843138,-2.78,6.51,-2.35
2.35,-68.0,188.50980392156862,-175.49019607843138,13.87,1.29,-14.25
2.4,27.0,237.50980392156862,-283.4901960784314,-34.11,7.49,-32.69
2.45,-20.0,107.50980392156863,-175.49019607843138,-25.36,4.48,-31.05
2.5,-20.0,205.50980392156862,-221.49019607843138,-41.77,2.55,-13.13
2.55,-4.0,270.5098039215686,-160.49019607843138,-13.77,-5.7,-4.97
2.6,42.0,270.5098039215686,-175.49019607843138,-47.37,-1.92,0.23
2.65,-20.0,319.5098039215686,-6.490196078431373,-11.57,-9.37,1.14
2.7,27.0,-209.0,-52.490196078431374,-32.81,-1.85,-3.5
2.75,-20.0,-307.0,116.50980392156863,-20.07,-10.49,-4.55
2.8,-282.5098039215686,270.5098039215686,-190.49019607843138,-23.29,-12.07,-5.95
2.85,-108.49019607843137,111.49019607843137,39.509803921568626,-30.05,-10.35,6.95
2.9,-131.0,-225.0,-206.49019607843138,-12.37,-14.97,16.82
2.95,35.490196078431374,-56.490196078431374,144.01960784313727,-14.19,-19.63,13.04
4.0,97.50980392156863,-35.509803921568626,-252.49019607843138,-9.12,-15.57,8.74
4.05,272.5098039215686,-94.0,267.01960784313724,-18.88,-6.22,6.95
4.1,99.49019607843137,-285.4901960784314,-9.980392156862745,-2.96,-3.25,5.97
4.15,208.50980392156862,-198.50980392156862,21.019607843137255,-0.02,-2.16,1.98
4.2,18.50980392156863,133.0,67.01960784313725,27.1,-3.25,-4.45
4.25,83.49019607843137,194.01960784313727,-193.98039215686273,21.78,12.6,1.0
4.3,-179.0,3.0,109.52941176470588,13.59,16.17,-0.63
4.35,-188.49019607843138,-198.50980392156862,109.52941176470588,9.67,12.74,1.42
4.4,-154.50980392156862,-252.49019607843138,-59.470588235294116,0.46,11.23,4.61
4.45,106.0,-176.0,248.52941176470588,-1.56,5.81,2.47
4.5,-188.49019607843138,-35.509803921568626,-9.980392156862745,-1.59,7.0,-0.46
4.55,313.0,-105.49019607843137,-101.98039215686275,0.64,7.28,-1.51
4.6,281.0,303.5098039215686,52.01960784313726,7.71,9.41,0.9
4.65,-108.49019607843137,46.490196078431374,313.01960784313724,15.55,2.48,-1.68
4.7,186.0,123.50980392156863,-236.49019607843138,13.41,4.76,-3.26
4.75,-123.50980392156863,139.50980392156862,-221.49019607843138,21.85,0.28,-3.19
4.8,18.50980392156863,13.490196078431373,116.50980392156863,20.97,2.52,-1.09
4.85,233.0,254.50980392156862,86.50980392156863,27.73,0.24,0.65
4.9,27.0,-78.0,239.50980392156862,40.01,-4.65,4.36
4.95,27.0,-209.0,255.50980392156862,7.64,6.65,-10.75
5.0,42.0,286.5098039215686,193.50980392156862,-33.3,11.69,-11.34
5.05,11.0,286.5098039215686,163.50980392156862,-19.02,-14.59,1.81
5.1,27.0,303.5098039215686,163.50980392156862,-37.36,-17.74,1.32
5.15,-36.0,-176.0,9.509803921568627,-8.17,-19.91,-0.7
5.2,-4.0,-225.0,70.50980392156863,-13.49,-11.89,0.0
5.25,-68.0,-143.0,39.509803921568626,-10.59,-16.16,-11.34
5.3,-36.0,-94.0,-83.49019607843137,-16.75,-12.77,-10.22
5.35,34.509803921568626,199.0,-206.49019607843138,-15.91,-15.85,-14.07
5.4,-154.50980392156862,-301.4901960784314,252.01960784313727,-12.79,-10.11,-5.78
5.45,210.49019607843138,-285.4901960784314,-132.98039215686273,-8.56,-5.63,6.08
5.5,-52.0,84.0,36.01960784313726,-0.54,0.59,15.81
5.55,-108.49019607843137,144.49019607843138,175.01960784313727,5.33,6.86,8.56
5.6,263.01960784313724,-18.50980392156863,313.01960784313724,21.99,11.79,8.18
5.65,177.50980392156862,-209.0,21.019607843137255,26.78,20.16,3.87
5.7,-234.50980392156862,276.01960784313724,232.52941176470588,14.15,27.33,-0.11
5.75,-257.01960784313724,-50.98039215686274,-198.47058823529412,12.57,15.99,-1.82
5.8,-218.50980392156862,41.509803921568626,-121.47058823529412,11.35,15.36,11.01
5.85,240.50980392156862,248.0,78.52941176470588,7.36,12.25,7.58
5.9,311.01960784313724,128.49019607843138,21.019607843137255,13.1,5.25,4.15
5.95,-45.490196078431374,166.0,206.01960784313727,10.61,4.41,-0.7
6.0,154.0,-72.49019607843137,221.01960784313727,0.18,3.85,3.17
6.05,-241.01960784313727,-1.9803921568627452,129.01960784313727,-0.12,-4.16,7.2
6.1,35.490196078431374,74.50980392156863,175.01960784313727,-6.18,-2.86,8.84
6.15,-227.0,-214.50980392156862,-236.49019607843138,-2.61,5.42,-2.94
6.2,-252.49019607843138,-253.01960784313727,86.50980392156863,5.75,15.29,1.77
6.25,18.50980392156863,297.0,239.50980392156862,8.93,15.71,-2.56
6.3,249.0,-89.49019607843137,286.5098039215686,24.05,5.0,5.73
6.35,-209.01960784313727,-66.98039215686275,163.50980392156862,23.49,-0.1,0.93
6.4,27.0,-176.0,193.50980392156862,-44.89,12.53,-10.68
6.45,-68.0,303.5098039215686,270.5098039215686,-44.4,-0.76,-1.23
6.5,106.0,303.5098039215686,209.50980392156862,-46.95,-14.45,4.85
6.55,58.0,-274.0,101.50980392156863,-39.25,-9.83,-2.49
6.6,11.0,-111.0,-129.49019607843138,-22.07,-5.8,-0.49
6.65,11.0,-143.0,-83.49019607843137,-17.8,-2.83,-14.91
6.7,-4.0,-176.0,-98.49019607843137,-7.72,-3.28,-9.98
6.75,-52.0,-62.0,-313.4901960784314,-1.59,-4.12,-10.01
6.8,-36.0,-127.0,221.01960784313727,-5.3,-5.35,3.63
6.85,-20.0,-45.0,190.01960784313727,11.14,-13.15,9.47
6.9,27.0,-62.0,159.01960784313727,-2.89,-3.18,6.53
6.95,-36.0,-45.0,36.01960784313726,13.76,-0.17,6.08
7.0,11.0,-94.0,21.019607843137255,8.86,5.14,-1.75
7.05,-20.0,-111.0,21.019607843137255,12.85,5.77,-5.01
7.1,27.0,-176.0,-70.98039215686275,11.35,6.93,-1.51
7.15,42.0,-78.0,294.52941176470586,-0.96,5.74,0.2
7.2,42.0,-143.0,124.52941176470588,2.21,-0.55,4.4
7.25,58.0,-160.0,155.52941176470588,1.76,5.18,6.99
7.3,58.0,-143.0,140.52941176470588,5.57,11.09,10.52
7.35,42.0,-192.0,-286.98039215686276,11.73,10.08,8.21
7.4,58.0,-127.0,21.019607843137255,8.2,10.85,8.07
7.45,42.0,-127.0,190.01960784313727,9.77,7.45,4.54
7.5,58.0,-78.0,298.01960784313724,6.13,6.12,6.22
7.55,42.0,-45.0,-252.49019607843138,12.05,6.05,8.49
7.6,27.0,-62.0,-144.49019607843138,-12.16,9.73,-4.41
7.65,27.0,-78.0,101.50980392156863,-8.66,5.84,-6.06
7.7,11.0,-62.0,209.50980392156862,18.35,-5.45,4.01
7.75,42.0,-127.0,255.50980392156862,42.08,-16.58,6.95
7.8,27.0,-209.0,209.50980392156862,5.61,-1.32,-6.48
7.85,27.0,-274.0,86.50980392156863,-39.39,4.09,-15.16
7.9,42.0,-274.0,178.50980392156862,-20.25,-21.31,-1.89
7.95,11.0,-225.0,-83.49019607843137,-60.71,-13.22,-3.4
8.0,-36.0,-127.0,-83.49019607843137,-15.91,-9.13,-3.01
8.05,42.0,-258.0,55.509803921568626,-2.36,-5.63,-11.73
8.1,11.0,-127.0,-52.490196078431374,-7.12,-0.83,-5.32
8.15,27.0,-45.0,-83.49019607843137,16.11,-16.44,14.3
8.2,58.0,-127.0,-236.49019607843138,17.93,-19.0,13.18
8.25,58.0,-94.0,298.01960784313724,-2.29,-8.74,5.8
8.3,-52.0,-62.0,205.01960784313727,3.12,-3.98,12.27
8.35,-36.0,-160.0,144.01960784313727,-1.8,-2.06,5.76
8.4,-68.0,-127.0,144.01960784313727,10.4,-0.62,1.53
8.45,-36.0,-192.0,129.01960784313727,7.29,5.21,-10.29
8.5,-52.0,-143.0,21.019607843137255,12.4,6.79,-11.2
8.55,-68.0,-209.0,-163.98039215686273,4.94,0.45,-9.56
8.6,-4.0,-225.0,171.52941176470588,-17.52,8.82,-6.02
8.65,11.0,-225.0,-59.470588235294116,-11.53,10.15,-1.3
8.7,11.0,-143.0,1.5294117647058822,-9.29,4.55,3.87
8.75,-4.0,-111.0,-317.98039215686276,-16.4,9.06,7.44
8.8,-4.0,-176.0,-40.98039215686274,-0.93,2.06,10.98
8.85,27.0,-62.0,52.01960784313726,-16.19,8.71,-1.26
8.9,27.0,-29.0,236.01960784313727,-27.84,11.41,-5.29
8.95,27.0,-45.0,-298.4901960784314,-17.2,9.1,-7.63
9.0,11.0,19.0,-144.49019607843138,-25.46,12.0,-8.51
9.05,27.0,-45.0,9.509803921568627,-24.17,11.16,-15.58
9.1,27.0,19.0,209.50980392156862,1.16,6.12,-3.64
9.15,58.0,-94.0,209.50980392156862,21.25,-4.51,12.27
9.2,74.0,-209.0,270.5098039215686,43.13,-10.04,-3.96
9.25,74.0,-176.0,193.50980392156862,-60.29,26.14,-18.59
9.3,27.0,-274.0,163.50980392156862,-54.97,15.82,-6.65
9.35,74.0,-62.0,178.50980392156862,13.38,-13.15,-2.31
9.4,58.0,-29.0,-21.49019607843137,-24.83,6.33,11.61
9.45,11.0,-94.0,-160.49019607843138,10.23,-2.51,2.47
9.5,90.0,101.0,-175.49019607843138,5.82,3.08,5.27
9.55,58.0,-29.0,-236.49019607843138,10.61,-5.49,5.24
9.6,42.0,35.0,267.01960784313724,19.12,-9.51,3.24
9.65,42.0,35.0,298.01960784313724,1.83,-1.85,3.66
9.7,42.0,19.0,221.01960784313727,15.37,-7.24,3.03
9.75,27.0,52.0,175.01960784313727,7.01,0.1,-0.42
9.8,27.0,3.0,144.01960784313727,13.52,2.24,0.27
9.85,42.0,3.0,98.01960784313725,18.14,2.76,-6.93
9.9,122.0,19.0,-147.98039215686273,27.94,7.77,-0.95
9.95,170.0,19.0,17.529411764705884,7.85,21.35,-3.12
10.0,217.0,-29.0,-105.47058823529412,11.87,20.58,7.65
10.05,233.0,-62.0,17.529411764705884,12.22,11.55,9.02
10.1,186.0,-78.0,-224.98039215686273,11.38,9.41,8.0
10.15,138.0,-29.0,-55.98039215686274,6.62,6.23,9.05
10.2,122.0,-13.0,190.01960784313727,8.69,-2.83,8.98
10.25,106.0,-45.0,221.01960784313727,-12.48,-3.04,2.58
10.3,106.0,-45.0,-267.4901960784314,-4.53,-8.95,2.09
10.35,74.0,-29.0,-175.49019607843138,-15.0,-1.5,-1.12
10.4,58.0,-45.0,-36.490196078431374,-9.36,-4.82,-0.21
10.45,106.0,-29.0,86.50980392156863,-6.56,-2.34,5.97
10.5,58.0,-143.0,193.50980392156862,-0.75,-4.79,5.55
10.55,74.0,-143.0,255.50980392156862,27.24,-7.17,7.69
10.6,42.0,-225.0,239.50980392156862,-33.58,19.67,-17.78
10.65,11.0,-192.0,116.50980392156863,-78.59,26.32,-1.23
10.7,42.0,-192.0,270.5098039215686,1.86,-18.82,4.33
10.75,74.0,-78.0,70.50980392156863,-19.06,-10.88,10.14
10.8,42.0,-62.0,-83.49019607843137,-3.69,-18.02,1.56
10.85,122.0,-45.0,-206.49019607843138,3.89,-13.75,3.35
10.9,58.0,-13.0,-313.4901960784314,0.15,-14.73,8.21
10.95,-4.0,-29.0,313.01960784313724,-0.65,-16.86,3.56
11.0,-20.0,-13.0,298.01960784313724,4.38,-8.57,-3.29
11.05,27.0,35.0,190.01960784313727,-14.09,-1.08,-9.98
11.1,42.0,19.0,267.01960784313724,7.43,-3.28,-9.28
11.15,58.0,68.0,113.01960784313725,-7.65,4.9,-8.19
11.2,27.0,-13.0,129.01960784313727,20.1,1.92,-12.99
11.25,74.0,52.0,-178.98039215686273,22.48,6.12,-12.22
11.3,122.0,52.0,201.52941176470588,7.78,6.93,-6.65
11.35,154.0,84.0,1.5294117647058822,2.42,3.53,8.91
11.4,138.0,35.0,17.529411764705884,-3.1,5.25,12.06
11.45,106.0,35.0,232.52941176470588,5.12,6.16,8.0
11.5,122.0,52.0,-117.98039215686275,10.54,6.54,7.34
11.55,90.0,3.0,21.019607843137255,1.9,6.96,5.94
11.6,74.0,19.0,159.01960784313727,5.47,-0.48,6.53
11.65,74.0,19.0,236.01960784313727,-1.17,-1.39,2.19
11.7,42.0,-45.0,-236.49019607843138,-4.5,-5.73,-5.53
11.75,58.0,19.0,-6.490196078431373,2.81,-9.76,-4.45
11.8,42.0,-45.0,116.50980392156863,6.45,-10.98,-5.18
11.85,27.0,-62.0,316.5098039215686,25.14,-13.82,6.11
11.9,27.0,-160.0,-264.0,23.7,-8.18,-6.3
11.95,42.0,-176.0,239.50980392156862,-38.34,14.31,-23.73
12.0,-20.0,-274.0,193.50980392156862,-34.42,0.59,-16.14
12.05,42.0,-127.0,70.50980392156863,12.89,-14.52,13.64
12.1,27.0,-62.0,-52.490196078431374,12.71,-7.38,12.2
12.15,58.0,3.0,-175.49019607843138,16.21,-7.24,6.25
12.2,58.0,-29.0,-160.49019607843138,8.69,-2.58,-38.26
12.25,233.0,-29.0,313.01960784313724,15.62,14.91,3.7
12.3,186.0,-127.0,-221.49019607843138,10.96,-13.47,0.06
12.35,11.0,-94.0,-236.49019607843138,28.18,-19.59,2.93
12.4,11.0,-78.0,252.01960784313727,23.7,-15.29,7.16
12.45,11.0,-143.0,144.01960784313727,16.77,-8.08,4.43
12.5,27.0,-160.0,-24.980392156862745,9.25,-3.18,-4.94
12.55,-20.0,-160.0,-70.98039215686275,1.3,-6.01,-0.53
12.6,11.0,-192.0,-178.98039215686273,13.38,-11.82,9.09
12.65,-4.0,-225.0,294.52941176470586,6.87,-7.34,14.83
12.7,27.0,303.5098039215686,140.52941176470588,-2.89,-1.15,15.49
12.75,-36.0,-290.0,140.52941176470588,-2.99,3.57,19.87
12.8,-4.0,-225.0,278.52941176470586,4.91,5.95,16.33
12.85,-36.0,-176.0,-163.98039215686273,-8.77,14.35,8.53
12.9,-20.0,-192.0,36.01960784313726,0.04,11.58,13.36
12.95,11.0,-62.0,144.01960784313727,-8.21,17.53,13.81
13.0,-20.0,-111.0,267.01960784313724,-5.3,21.31,6.95
13.05,11.0,-62.0,-283.4901960784314,-11.36,25.2,5.59
13.1,-20.0,-111.0,-6.490196078431373,-0.05,26.49,1.77
13.15,27.0,-111.0,86.50980392156863,4.07,26.95,-14.95
13.2,11.0,-94.0,255.50980392156862,7.08,23.48,-18.87
13.25,-52.0,-192.0,-310.0,19.19,13.93,-32.41
13.3,-36.0,-209.0,286.5098039215686,-57.7,25.13,-69.09
13.35,-163.0,-290.0,301.5098039215686,-98.75,37.13,-68.43
13.4,-84.0,-192.0,-310.0,-169.1,16.83,-43.33
13.45,-163.0,-111.0,-187.0,-19.3,-27.5,-29.4
13.5,-282.5098039215686,-247.50980392156862,-144.49019607843138,-30.85,2.34,-3.26
13.55,-298.5098039215686,183.0,-221.49019607843138,-14.51,13.65,15.91
13.6,233.0,35.0,113.01960784313725,-3.87,9.76,17.91
13.65,233.0,52.0,313.01960784313724,27.69,1.05,16.89
13.7,186.0,133.0,221.01960784313727,-0.09,5.6,12.38
13.75,201.0,117.0,190.01960784313727,19.71,-4.3,12.66
13.8,233.0,199.0,236.01960784313727,14.88,7.84,9.02
13.85,233.0,183.0,52.01960784313726,-4.5,10.29,0.65
13.9,281.0,232.0,-24.980392156862745,-29.59,22.89,-3.78
13.95,-186.50980392156862,183.0,-286.98039215686276,-3.97,48.58,-12.36
14.0,-139.50980392156862,-263.5098039215686,-136.47058823529412,2.49,56.91,6.04
14.05,-43.509803921568626,313.0,-44.470588235294116,12.57,39.86,14.62
14.1,-27.50980392156863,-214.50980392156862,278.52941176470586,-6.84,20.72,11.19
14.15,-170.50980392156862,183.0,82.01960784313725,18.1,7.21,12.87
14.2,-202.50980392156862,264.0,252.01960784313727,-13.21,9.13,4.5
14.25,-282.5098039215686,117.0,-298.4901960784314,2.0,-8.36,5.9
14.3,-282.5098039215686,101.0,-190.49019607843138,6.94,-20.08,4.96
14.35,313.0,183.0,-52.490196078431374,-2.29,-17.46,3.38
14.4,217.0,52.0,116.50980392156863,7.67,-16.69,-2.59
14.45,186.0,-13.0,193.50980392156862,6.24,-6.22,7.3
14.5,138.0,-78.0,286.5098039215686,40.19,0.63,19.69
14.55,154.0,-29.0,-249.0,28.15,-11.68,-13.13
14.6,186.0,-160.0,-264.0,-71.38,16.9,-44.17
14.65,-36.0,-192.0,286.5098039215686,-49.61,-11.05,-18.38
14.7,154.0,-45.0,-295.0,-24.59,-26.03,-25.24
14.75,186.0,101.0,86.50980392156863,-20.63,-6.22,-6.9
14.8,138.0,133.0,-206.49019607843138,-0.19,-18.09,-8.79
14.85,313.0,166.0,-6.490196078431373,-16.29,-16.09,-7.04
14.9,217.0,133.0,-190.49019607843138,-10.24,-8.5,-1.72
14.95,217.0,183.0,-283.4901960784314,4.17,-1.99,7.27
15.0,217.0,313.0,175.01960784313727,-11.71,2.27,4.33
15.05,297.0,297.0,-313.4901960784314,2.88,3.46,2.75
15.1,297.0,-296.5098039215686,129.01960784313727,-7.37,5.81,-4.38
15.15,297.0,-231.50980392156862,113.01960784313725,-1.17,1.4,-3.15
15.2,-266.5098039215686,313.0,36.01960784313726,-7.86,6.75,0.65
15.25,-154.50980392156862,-165.50980392156862,-301.98039215686276,-0.3,2.59,2.68
15.3,19.49019607843137,-133.50980392156862,155.52941176470588,-2.54,3.88,10.42
15.35,-27.50980392156863,-18.50980392156863,32.529411764705884,9.77,-0.83,21.48
15.4,-75.50980392156863,-165.50980392156862,201.52941176470588,12.12,-7.66,16.93
15.45,-202.50980392156862,-312.5098039215686,-55.98039215686274,19.57,-2.93,17.35
15.5,-250.50980392156862,-296.5098039215686,36.01960784313726,15.72,-1.25,17.1
15.55,-282.5098039215686,-312.5098039215686,221.01960784313727,6.94,3.99,7.02
15.6,297.0,281.0,-283.4901960784314,6.2,7.94,-0.21
15.65,201.0,199.0,-190.49019607843138,8.27,3.32,-4.62
15.7,138.0,84.0,86.50980392156863,1.27,-9.58,-2.0
15.75,90.0,35.0,-264.0,46.66,-20.54,13.43
15.8,58.0,-13.0,-310.0,45.16,-17.7,21.79
15.85,90.0,-160.0,-218.0,35.5,-13.29,0.93
15.9,2.5098039215686274,62.490196078431374,-95.0,-65.75,8.99,-25.48
15.95,-211.0,-258.0,181.0,-20.39,4.51,-11.94
16.0,35.490196078431374,-187.49019607843138,86.50980392156863,-39.74,-15.53,-7.07
16.05,-130.01960784313727,308.01960784313724,-52.490196078431374,-16.19,-12.03,3.38
16.1,-282.5098039215686,199.0,-267.4901960784314,-5.86,-14.17,-0.46
16.15,288.5098039215686,307.4901960784314,86.50980392156863,-12.65,-3.77,2.68
16.2,-252.49019607843138,-40.01960784313726,-52.490196078431374,12.08,-10.95,9.65
16.25,-154.50980392156862,-143.0,313.01960784313724,1.27,-3.77,-0.42
16.3,138.0,-263.5098039215686,221.01960784313727,-11.36,1.36,-5.92
16.35,138.0,313.0,252.01960784313727,-11.32,3.57,-9.14
16.4,170.0,313.0,98.01960784313725,10.51,-1.25,-0.91
16.45,249.0,313.0,-9.980392156862745,1.72,1.61,-4.73
16.5,313.0,297.0,-86.98039215686275,12.22,8.61,-8.12
16.55,-234.50980392156862,-182.50980392156862,217.52941176470588,0.92,17.5,0.3
16.6,-170.50980392156862,-67.50980392156863,17.529411764705884,11.77,11.83,9.02
16.65,-154.50980392156862,-84.50980392156863,1.5294117647058822,13.03,4.76,12.55
16.7,-202.50980392156862,-247.50980392156862,-240.98039215686273,11.8,-2.62,15.04
16.75,-282.5098039215686,-312.5098039215686,5.019607843137255,22.55,-9.09,15.7
16.8,313.0,248.0,67.01960784313725,9.7,-7.83,15.53
16.85,249.0,232.0,252.01960784313727,16.91,-7.8,10.73
16.9,170.0,248.0,313.01960784313724,16.46,-5.03,6.11
16.95,154.0,133.0,-206.49019607843138,19.71,-8.57,-0.46
17.0,90.0,101.0,-6.490196078431373,11.45,-3.6,-3.78
17.05,27.0,19.0,239.50980392156862,32.03,-9.23,-1.16
17.1,42.0,-45.0,-264.0,39.77,-10.77,5.17
17.15,58.0,-160.0,-233.0,35.92,-4.86,-6.23
17.2,90.0,-29.0,301.5098039215686,-54.16,14.03,-28.6
17.25,106.0,-192.0,224.50980392156862,-61.83,-4.4,-10.78
17.3,186.0,-78.0,209.50980392156862,-32.01,-24.98,-1.65
17.35,138.0,-94.0,101.50980392156863,-16.05,-14.66,5.87
17.4,42.0,35.0,-175.49019607843138,-14.37,-5.56,8.46
17.45,186.0,19.0,24.50980392156863,-9.64,5.56,-2.14
17.5,186.0,52.0,-190.49019607843138,-15.45,5.0,-8.65
17.55,122.0,166.0,-298.4901960784314,-3.41,7.63,-5.22
17.6,90.0,215.0,206.01960784313727,-14.05,5.49,-8.05
17.65,122.0,183.0,236.01960784313727,-8.24,5.25,-7.39
17.7,154.0,215.0,144.01960784313727,-0.16,3.22,-6.86
17.75,186.0,-312.5098039215686,52.01960784313726,8.34,-0.17,-3.54
17.8,233.0,264.0,-9.980392156862745,8.13,5.18,2.75
17.85,265.0,248.0,-117.98039215686275,11.38,9.55,4.71
17.9,-266.5098039215686,-263.5098039215686,186.52941176470588,7.5,13.75,8.81
17.95,-202.50980392156862,-198.50980392156862,63.529411764705884,8.27,6.79,20.57
18.0,-218.50980392156862,-231.50980392156862,124.52941176470588,6.48,-1.15,24.56
18.05,-282.5098039215686,-296.5098039215686,-209.98039215686273,11.52,-7.34,27.11
18.1,265.0,281.0,-9.980392156862745,0.39,-4.86,22.18
18.15,265.0,232.0,144.01960784313727,15.83,-1.85,16.12
18.2,265.0,215.0,175.01960784313727,-4.78,7.7,6.6
18.25,170.0,215.0,-267.4901960784314,13.06,8.08,6.15
18.3,122.0,117.0,-129.49019607843138,15.93,10.85,8.07
18.35,106.0,52.0,-6.490196078431373,16.32,10.15,0.48
18.4,58.0,19.0,193.50980392156862,30.84,4.9,7.65
18.45,74.0,-78.0,270.5098039215686,45.37,6.72,13.99
18.5,58.0,-13.0,270.5098039215686,46.0,22.78,6.95
18.55,154.0,-176.0,193.50980392156862,-15.49,43.01,-33.85
18.6,106.0,-225.0,270.5098039215686,-44.5,36.22,-20.44
18.65,201.0,-94.0,209.50980392156862,-32.39,2.66,-4.2
18.7,249.0,-29.0,86.50980392156863,-20.6,12.56,7.3
18.75,138.0,35.0,-113.49019607843137,-16.82,21.49,2.3
18.8,281.0,-29.0,-52.490196078431374,-15.66,6.61,-3.36
18.85,-266.5098039215686,19.0,-6.490196078431373,-25.46,1.78,11.15
18.9,-313.5098039215686,19.0,-190.49019607843138,-14.61,2.8,5.73
18.95,-250.50980392156862,101.0,282.01960784313724,-27.53,9.41,0.97
19.0,-186.50980392156862,84.0,267.01960784313724,-7.23,2.76,-4.87
19.05,-186.50980392156862,183.0,175.01960784313727,-43.77,16.13,-0.04
19.1,-234.50980392156862,183.0,267.01960784313724,24.96,2.2,7.23
19.15,-139.50980392156862,264.0,144.01960784313727,13.03,8.57,-3.54
19.2,-123.50980392156863,232.0,82.01960784313725,5.43,15.92,-11.73
19.25,4.490196078431373,248.0,-163.98039215686273,-6.77,17.18,-8.02
19.3,-320.01960784313724,-198.50980392156862,294.52941176470586,10.51,8.05,7.62
19.35,274.4901960784314,-84.50980392156863,232.52941176470588,7.92,-6.75,18.08
19.4,115.49019607843137,281.0,-209.98039215686273,-3.2,-11.47,13.11
19.45,-59.509803921568626,248.0,36.01960784313726,7.11,-13.82,10.35
19.5,-107.50980392156863,232.0,175.01960784313727,1.3,-5.35,9.89
19.55,-186.50980392156862,264.0,267.01960784313724,5.29,-5.91,7.58
19.6,-186.50980392156862,183.0,-283.4901960784314,11.49,-5.66,5.41
19.65,-218.50980392156862,133.0,-175.49019607843138,5.01,0.07,5.9
19.7,281.0,117.0,-83.49019607843137,5.85,-2.65,-1.68
19.75,217.0,68.0,132.50980392156862,6.17,-7.94,-3.29
19.8,201.0,19.0,209.50980392156862,26.01,-20.99,7.2
19.85,201.0,-45.0,286.5098039215686,42.43,-26.28,22.07
19.9,154.0,-176.0,301.5098039215686,11.24,-2.3,-7.88
19.95,154.0,-160.0,209.50980392156862,-73.9,25.97,-35.07
20.0,122.0,-258.0,239.50980392156862,-56.82,3.64,-21.7
20.05,265.0,-111.0,286.5098039215686,-14.75,-6.36,-16.17
20.1,201.0,35.0,24.50980392156863,-15.07,2.69,-2.66
20.15,201.0,101.0,-6.490196078431373,-4.08,0.56,1.7
20.2,297.0,183.0,86.50980392156863,-16.5,5.49,1.91
20.25,297.0,68.0,-129.49019607843138,5.75,-3.07,-3.61
20.3,297.0,183.0,-267.4901960784314,-15.03,3.85,-14.25
20.35,-282.5098039215686,215.0,267.01960784313724,-15.21,7.45,-12.39
20.4,-218.50980392156862,297.0,252.01960784313727,-7.02,3.5,-3.01
20.45,-186.50980392156862,313.0,206.01960784313727,-3.06,-2.65,-3.5
20.5,-139.50980392156862,248.0,221.01960784313727,1.48,0.49,1.04
20.55,-154.50980392156862,248.0,113.01960784313725,7.88,3.11,1.14
20.6,-59.509803921568626,-296.5098039215686,-24.980392156862745,9.98,12.04,10.7
20.65,131.49019607843138,-182.50980392156862,294.52941176470586,4.73,15.12,9.47
20.7,178.49019607843138,-198.50980392156862,294.52941176470586,10.16,11.79,14.51
20.75,115.49019607843137,-198.50980392156862,278.52941176470586,27.41,1.54,14.79
20.8,19.49019607843137,-247.50980392156862,-132.98039215686273,5.82,2.31,9.93
20.85,-139.50980392156862,264.0,129.01960784313727,1.27,8.01,2.96
20.9,-186.50980392156862,281.0,190.01960784313727,1.9,6.54,2.09
20.95,-202.50980392156862,248.0,-283.4901960784314,-2.08,3.99,1.39
21.0,-170.50980392156862,183.0,-236.49019607843138,-1.49,0.14,-8.96
21.05,-313.5098039215686,215.0,-36.490196078431374,3.3,3.81,-9.56
21.1,249.0,133.0,-36.490196078431374,-13.46,-3.56,-8.3
21.15,186.0,68.0,301.5098039215686,14.01,-20.43,-2.94
21.2,154.0,-78.0,-295.0,17.12,-20.96,14.93
21.25,122.0,-209.0,-249.0,45.09,-18.05,18.85
21.3,186.0,-192.0,286.5098039215686,-23.61,22.89,-38.71
21.35,138.0,-176.0,55.509803921568626,-75.3,8.61,-32.87
21.4,-313.5098039215686,-94.0,-310.0,-6.14,-12.21,-5.36
21.45,249.0,-13.0,116.50980392156863,-28.75,5.07,-6.62
21.5,138.0,117.0,-67.49019607843137,22.02,-8.74,-1.58
21.55,-250.50980392156862,232.0,39.509803921568626,-15.35,1.99,5.48
21.6,-298.5098039215686,35.0,-83.49019607843137,-1.63,-0.83,3.0
21.65,-282.5098039215686,215.0,-175.49019607843138,-3.55,3.71,6.53
21.7,-266.5098039215686,281.0,-283.4901960784314,-10.2,9.24,-6.37
21.75,-218.50980392156862,-312.5098039215686,313.01960784313724,-0.82,10.01,2.65
21.8,-202.50980392156862,-247.50980392156862,190.01960784313727,-4.04,2.59,6.01
21.85,-139.50980392156862,-247.50980392156862,252.01960784313727,10.47,-1.04,4.19
21.9,-107.50980392156863,297.0,205.01960784313727,0.15,3.88,-0.7
21.95,-59.509803921568626,281.0,52.01960784313726,13.48,11.9,0.3
22.0,163.49019607843138,-133.50980392156862,-193.98039215686273,2.67,18.27,8.56
22.05,306.4901960784314,-67.50980392156863,278.52941176470586,14.95,3.64,15.32
22.1,242.49019607843138,-116.50980392156863,-317.98039215686276,20.45,-7.8,16.61
22.15,67.49019607843137,-312.5098039215686,-147.98039215686273,-0.47,-11.58,6.29
22.2,-59.509803921568626,281.0,236.01960784313727,12.92,-7.87,6.53
22.25,-170.50980392156862,297.0,129.01960784313727,2.39,-5.14,10.31
22.3,-123.50980392156863,248.0,313.01960784313724,4.38,-4.79,4.92
22.35,-202.50980392156862,248.0,-252.49019607843138,-2.92,-3.07,-6.2
22.4,-282.5098039215686,215.0,-113.49019607843137,5.61,-8.46,-6.2
22.45,265.0,166.0,55.509803921568626,0.22,-15.64,-7.74
22.5,186.0,68.0,224.50980392156862,22.55,-19.66,-3.64
22.55,154.0,84.0,178.50980392156862,3.93,-19.8,1.67
22.6,154.0,-29.0,-279.0,56.95,-28.24,44.09
22.65,233.0,-176.0,316.5098039215686,36.37,4.44,-18.24
22.7,154.0,-94.0,147.50980392156862,-128.33,28.38,-30.49
22.75,186.0,319.5098039215686,-172.0,-6.67,-20.78,-20.72
22.8,297.0,19.0,70.50980392156863,-55.49,5.32,-5.15
22.85,74.0,-13.0,-67.49019607843137,5.75,-6.15,10.03
22.9,-313.5098039215686,199.0,101.50980392156863,-15.91,10.46,-1.19
22.95,-313.5098039215686,133.0,-21.49019607843137,-8.31,6.12,0.86
23.0,265.0,215.0,-160.49019607843138,0.39,-1.15,-9.17
23.05,313.0,313.0,-313.4901960784314,-12.83,2.2,-2.91
23.1,281.0,297.0,-313.4901960784314,-18.36,3.32,-8.19
23.15,-250.50980392156862,-263.5098039215686,236.01960784313727,-3.38,0.91,5.83
23.2,-202.50980392156862,-296.5098039215686,159.01960784313727,-1.94,2.62,6.43
23.25,-154.50980392156862,313.0,190.01960784313727,12.89,3.95,4.54
23.3,-75.50980392156863,-296.5098039215686,67.01960784313725,6.41,11.44,-0.67
23.35,35.490196078431374,-280.5098039215686,-132.98039215686273,-0.89,12.18,3.98
23.4,194.49019607843138,46.490196078431374,217.52941176470588,7.46,-1.15,14.51
23.45,147.49019607843138,-18.50980392156863,-317.98039215686276,21.25,-10.63,22.39
23.5,83.49019607843137,-165.50980392156862,-317.98039215686276,7.92,-12.14,16.16
23.55,-59.509803921568626,-231.50980392156862,5.019607843137255,19.05,-4.58,14.27
23.6,-186.50980392156862,-280.5098039215686,113.01960784313725,6.97,2.45,12.55
23.65,-234.50980392156862,232.0,267.01960784313724,8.44,1.5,9.58
23.7,-266.5098039215686,313.0,-236.49019607843138,6.31,-4.54,11.54
23.75,-298.5098039215686,199.0,-83.49019607843137,9.53,-9.51,17.56
23.8,249.0,133.0,70.50980392156863,29.69,-26.21,16.72
23.85,201.0,35.0,224.50980392156862,21.04,-29.53,-0.32
23.9,42.0,-62.0,-203.0,19.05,-17.95,6.6
23.95,42.0,-78.0,-310.0,66.89,-10.53,16.09
24.0,122.0,3.0,178.50980392156862,-36.31,26.53,-22.05
24.05,58.0,-274.0,270.5098039215686,-59.24,5.98,-29.33
24.1,297.0,-111.0,316.5098039215686,-39.36,3.5,-30.8
24.15,154.0,-143.0,-21.49019607843137,-42.68,10.32,-12.95
24.2,186.0,166.0,-52.490196078431374,5.43,-0.31,-2.35
24.25,-250.50980392156862,248.0,116.50980392156863,-28.68,13.86,-6.13
24.3,265.0,117.0,-160.49019607843138,1.72,4.9,-1.26
24.35,-298.5098039215686,248.0,-283.4901960784314,-26.02,10.99,-2.42
24.4,-298.5098039215686,264.0,252.01960784313727,0.11,-1.36,-2.94
24.45,-266.5098039215686,-263.5098039215686,282.01960784313724,-20.49,10.22,-3.75
24.5,-298.5098039215686,313.0,206.01960784313727,7.08,5.32,2.75
24.55,-170.50980392156862,313.0,221.01960784313727,3.37,8.89,-1.82
24.6,-139.50980392156862,297.0,205.01960784313727,16.88,5.18,-7.32
24.65,-59.509803921568626,-231.50980392156862,98.01960784313725,3.61,13.96,-7.21
24.7,35.490196078431374,-116.50980392156863,-224.98039215686273,4.03,12.84,2.37
24.75,242.49019607843138,-67.50980392156863,278.52941176470586,1.72,2.55,13.78
24.8,226.49019607843138,-133.50980392156862,-286.98039215686276,15.13,-5.87,16.96
24.85,35.490196078431374,-165.50980392156862,-147.98039215686273,3.16,-7.34,13.18
24.9,-75.50980392156863,-312.5098039215686,129.01960784313727,10.96,-6.68,9.54
24.95,-154.50980392156862,-280.5098039215686,175.01960784313727,3.23,-3.25,12.34
25.0,-202.50980392156862,297.0,236.01960784313727,9.77,-12.45,13.99
25.05,-170.50980392156862,264.0,-267.4901960784314,10.12,-8.99,9.23
25.1,313.0,248.0,-206.49019607843138,8.58,-7.24,-1.44
25.15,186.0,166.0,39.509803921568626,12.75,-10.14,-3.4
25.2,122.0,150.0,209.50980392156862,17.65,-18.37,1.39
25.25,90.0,-13.0,-233.0,44.74,-24.49,19.13
25.3,138.0,-176.0,-187.0,29.23,-4.68,2.4
25.35,138.0,-192.0,-295.0,-54.97,32.41,-27.48
25.4,74.0,-176.0,193.50980392156862,-59.2,13.65,-21.88
25.45,265.0,-94.0,301.5098039215686,-19.79,1.99,-22.44
25.5,233.0,-13.0,-83.49019607843137,-29.94,10.22,-4.76
25.55,249.0,166.0,-67.49019607843137,-10.8,-6.36,-5.18
25.6,-298.5098039215686,117.0,162.50980392156862,-22.21,3.25,-1.58
25.65,217.0,101.0,-144.49019607843138,3.19,-2.58,-9.63
25.7,233.0,-312.5098039215686,-236.49019607843138,-21.75,4.69,-10.96
25.75,265.0,-312.5098039215686,-283.4901960784314,-12.65,2.55,-4.62
25.8,-170.50980392156862,-312.5098039215686,-298.4901960784314,2.04,5.0,1.49
25.85,-186.50980392156862,-296.5098039215686,236.01960784313727,-3.97,10.11,1.53
25.9,-186.50980392156862,-263.5098039215686,206.01960784313727,13.38,6.58,0.16
25.95,-139.50980392156862,-198.50980392156862,159.01960784313727,7.67,6.4,-1.37
26.0,-107.50980392156863,-247.50980392156862,113.01960784313725,1.65,7.77,-6.27
26.05,-43.509803921568626,-133.50980392156862,-40.98039215686274,13.1,6.58,3.73
26.1,67.49019607843137,-51.509803921568626,-224.98039215686273,1.41,7.7,14.69
26.15,115.49019607843137,-84.50980392156863,-224.98039215686273,11.31,-0.03,17.28
26.2,83.49019607843137,-182.50980392156862,-117.98039215686275,8.06,-3.0,14.37
26.25,35.490196078431374,-214.50980392156862,36.01960784313726,9.11,-2.34,10.17
26.3,-91.50980392156863,-280.5098039215686,98.01960784313725,0.78,-2.44,4.08
26.35,-186.50980392156862,-263.5098039215686,206.01960784313727,4.7,-8.53,7.23
26.4,-202.50980392156862,-296.5098039215686,313.01960784313724,7.99,-7.38,11.78
26.45,-298.5098039215686,297.0,-298.4901960784314,1.34,-9.44,19.27
26.5,-298.5098039215686,215.0,-52.490196078431374,19.85,-19.63,31.31
26.55,313.0,183.0,-67.49019607843137,1.86,-21.55,24.42
26.6,154.0,19.0,132.50980392156862,1.69,-22.39,14.76
26.65,90.0,3.0,-203.0,43.83,-28.34,21.16
26.7,122.0,-143.0,-310.0,46.38,4.76,1.11
26.75,122.0,-127.0,270.5098039215686,-66.03,51.27,-40.67
26.8,74.0,-176.0,-310.0,-20.77,28.8,-56.39
26.85,265.0,68.0,209.50980392156862,-47.55,30.76,-49.77
26.9,106.0,35.0,-160.49019607843138,-3.34,10.67,-22.33
26.95,265.0,117.0,9.509803921568627,0.71,0.59,-23.24
27.0,-218.50980392156862,84.0,-6.490196078431373,-3.62,-3.39,-10.22
27.05,-298.5098039215686,101.0,-206.49019607843138,10.86,-15.29,-6.72
27.1,-250.50980392156862,183.0,-144.49019607843138,-0.82,-9.13,-6.65
27.15,-298.5098039215686,183.0,-236.49019607843138,-4.04,-0.48,-8.02
27.2,-250.50980392156862,248.0,-129.49019607843138,-14.16,12.88,-16.1
27.25,-266.5098039215686,-296.5098039215686,313.01960784313724,-24.41,15.99,-10.47
27.3,-202.50980392156862,-296.5098039215686,313.01960784313724,3.93,12.81,-9.56
27.35,-91.50980392156863,-116.50980392156863,36.01960784313726,-5.55,10.08,-3.71
27.4,-59.509803921568626,-133.50980392156862,-9.980392156862745,18.77,-4.68,3.84
27.45,67.49019607843137,-51.509803921568626,-163.98039215686273,-13.88,-1.67,4.99
27.5,115.49019607843137,-84.50980392156863,-255.98039215686273,17.26,-7.97,25.71
27.55,226.49019607843138,-2.5098039215686274,-209.98039215686273,8.97,1.12,24.77
27.6,-11.509803921568627,-165.50980392156862,-163.98039215686273,8.41,3.46,15.39
27.65,-91.50980392156863,-280.5098039215686,36.01960784313726,5.47,4.69,12.55
27.7,-186.50980392156862,-280.5098039215686,252.01960784313727,8.34,-3.14,15.95
27.75,-234.50980392156862,-280.5098039215686,267.01960784313724,-8.35,-7.52,6.46
27.8,-234.50980392156862,232.0,-252.49019607843138,-12.23,-9.9,3.03
27.85,-298.5098039215686,232.0,-160.49019607843138,-14.26,-15.08,5.8
27.9,281.0,297.0,55.509803921568626,-4.25,-15.99,0.44
27.95,170.0,84.0,147.50980392156862,-3.59,-14.06,-3.99
28.0,90.0,35.0,239.50980392156862,9.88,-22.64,8.7
28.05,122.0,-94.0,-249.0,51.95,-19.03,29.7
28.1,154.0,-143.0,286.5098039215686,7.6,9.1,-9.28
28.15,122.0,-111.0,301.5098039215686,-57.03,28.45,-19.29
28.2,170.0,-62.0,-218.0,-3.17,12.88,-37.84
28.25,313.0,68.0,9.509803921568627,-30.33,19.42,-13.44
28.3,186.0,264.0,-175.49019607843138,6.87,-1.43,-10.19
28.35,-234.50980392156862,313.0,70.50980392156863,-19.34,6.44,3.91
28.4,313.0,19.0,-113.49019607843137,-0.37,-9.27,-11.52
28.45,-250.50980392156862,313.0,-221.49019607843138,-6.04,-2.83,-1.79
28.5,-266.5098039215686,-280.5098039215686,282.01960784313724,-12.2,-4.33,-1.37
28.55,-218.50980392156862,-263.5098039215686,-283.4901960784314,2.18,-5.49,0.0
28.6,-234.50980392156862,-214.50980392156862,236.01960784313727,-1.0,-0.24,-5.15
28.65,-282.5098039215686,-198.50980392156862,267.01960784313724,5.61,-0.41,-5.71
28.7,-234.50980392156862,-231.50980392156862,252.01960784313727,-11.22,2.13,-3.82
28.75,-154.50980392156862,-231.50980392156862,206.01960784313727,-6.21,-1.43,9.93
28.8,19.49019607843137,-2.5098039215686274,-101.98039215686275,1.69,-1.85,12.94
28.85,83.49019607843137,46.490196078431374,309.52941176470586,-0.65,2.52,12.2
28.9,67.49019607843137,30.49019607843137,-317.98039215686276,8.76,2.66,12.41
28.95,19.49019607843137,30.49019607843137,-147.98039215686273,5.61,-1.92,8.77
29.0,-75.50980392156863,-133.50980392156862,98.01960784313725,2.63,-3.6,7.97
29.05,-218.50980392156862,-214.50980392156862,144.01960784313727,8.48,-9.34,20.67
29.1,-202.50980392156862,-133.50980392156862,221.01960784313727,10.51,-15.29,17.52
29.15,-186.50980392156862,-247.50980392156862,-283.4901960784314,18.31,-11.37,10.17
29.2,313.0,297.0,-129.49019607843138,24.23,0.49,2.54
29.25,249.0,183.0,86.50980392156863,39.56,-0.03,0.62
29.3,186.0,101.0,255.50980392156862,27.87,9.24,1.46
29.35,58.0,-78.0,-141.0,75.89,-2.02,19.66
29.4,138.0,-94.0,-233.0,31.33,9.66,-5.46
29.45,122.0,-160.0,-279.0,-61.44,19.39,-23.14
29.5,122.0,-160.0,316.5098039215686,-18.85,-12.94,-15.93
29.55,-298.5098039215686,-62.0,101.50980392156863,-42.65,3.85,-7.28
29.6,138.0,52.0,-144.49019607843138,8.09,-10.77,3.28
29.65,313.0,183.0,101.50980392156863,-16.05,0.7,1.11
29.7,265.0,68.0,24.50980392156863,-3.69,-3.04,-6.41
29.75,265.0,183.0,-236.49019607843138,-11.43,-1.78,-4.83
29.8,297.0,-296.5098039215686,-267.4901960784314,-11.29,-4.68,4.61
29.85,-298.5098039215686,281.0,-313.4901960784314,-6.67,-4.12,6.64
29.9,-250.50980392156862,232.0,-298.4901960784314,-13.0,-1.25,-1.26
29.95,-234.50980392156862,-312.5098039215686,236.01960784313727,-4.88,-1.11,-6.13
30.0,-298.5098039215686,-214.50980392156862,236.01960784313727,-27.42,7.56,-13.3
30.05,-298.5098039215686,-214.50980392156862,144.01960784313727,-3.9,1.92,-9.0
30.1,-59.509803921568626,-182.50980392156862,-178.98039215686273,2.53,7.8,-3.57
30.15,226.49019607843138,-149.50980392156862,294.52941176470586,25.56,7.91,14.9
30.2,306.4901960784314,30.49019607843137,78.52941176470588,33.92,-1.6,26.87
30.25,115.49019607843137,-100.50980392156863,294.52941176470586,44.49,-10.0,26.87
30.3,-27.50980392156863,-149.50980392156862,-224.98039215686273,37.56,-12.8,17.31
30.35,-186.50980392156862,-263.5098039215686,67.01960784313725,30.49,-16.9,8.21
30.4,-282.5098039215686,264.0,-313.4901960784314,26.92,-26.59,-8.16
30.45,281.0,215.0,-252.49019607843138,19.01,-33.14,-23.52
30.5,265.0,150.0,-190.49019607843138,-17.24,-32.82,-32.66
30.55,186.0,117.0,-67.49019607843137,-9.22,-35.17,-22.93
30.6,297.0,35.0,-36.490196078431374,126.53,-51.27,-10.68
30.65,154.0,150.0,178.50980392156862,36.55,-10.21,-0.77
30.7,138.0,-111.0,163.50980392156862,221.84,-21.13,22.84
30.75,186.0,-263.5098039215686,-175.49019607843138,111.66,3.85,24.28
30.8,281.0,286.5098039215686,255.50980392156862,51.95,44.31,-22.79
30.85,27.0,-225.0,267.01960784313724,-70.44,61.0,-120.93
30.9,217.0,254.50980392156862,-144.49019607843138,61.92,-11.23,38.98
30.95,201.0,172.50980392156862,24.50980392156863,142.77,-42.27,20.99
31.0,297.0,-45.0,298.01960784313724,-8.0,8.33,-28.6
31.05,138.0,-23.49019607843137,-83.49019607843137,-9.43,15.47,1.6
31.1,186.0,270.5098039215686,-252.49019607843138,-5.79,23.17,-2.42
31.15,-313.5098039215686,237.50980392156862,282.01960784313724,31.05,-13.4,7.58
31.2,249.0,205.50980392156862,-283.4901960784314,-14.61,6.93,7.09
31.25,265.0,58.509803921568626,-206.49019607843138,12.43,-4.47,3.21
31.3,313.0,254.50980392156862,-221.49019607843138,41.1,4.55,2.86
31.35,170.0,286.5098039215686,-283.4901960784314,53.66,3.99,-48.72
31.4,265.0,123.50980392156863,-267.4901960784314,29.55,6.58,-39.97
31.45,265.0,139.50980392156862,-221.49019607843138,-5.79,-10.56,7.13
31.5,249.0,156.50980392156862,-175.49019607843138,-41.11,-7.2,55.67
31.55,186.0,188.50980392156862,-221.49019607843138,-9.99,-9.69,47.41
31.6,201.0,205.50980392156862,-267.4901960784314,15.3,-6.19,10.07
31.65,249.0,139.50980392156862,-267.4901960784314,12.47,-7.24,12.76
31.7,170.0,156.50980392156862,-236.49019607843138,19.71,-10.74,4.22
31.75,233.0,139.50980392156862,-283.4901960784314,17.37,-8.5,9.54
31.8,186.0,107.50980392156863,-221.49019607843138,3.96,-5.52,7.3
31.85,186.0,74.50980392156863,-236.49019607843138,10.16,1.96,13.25
31.9,154.0,41.509803921568626,-252.49019607843138,8.16,-0.62,7.97
31.95,201.0,58.509803921568626,-206.49019607843138,11.24,-2.55,6.39
32.0,138.0,139.50980392156862,-160.49019607843138,10.75,-7.45,3.98
32.05,122.0,74.50980392156863,-175.49019607843138,6.66,-8.78,3.17
32.1,154.0,74.50980392156863,-160.49019607843138,-10.34,-8.57,0.34
32.15,201.0,41.509803921568626,-113.49019607843137,-17.73,-26.49,1.84
32.2,170.0,107.50980392156863,-67.49019607843137,-19.09,-38.91,-11.31
32.25,122.0,156.50980392156862,24.50980392156863,-102.6,-31.67,-74.9
32.3,-259.0,107.50980392156863,116.50980392156863,-90.81,-70.17,-122.54
32.35,-52.0,237.50980392156862,86.50980392156863,-115.8,-78.85,-162.72
32.4,272.5098039215686,319.5098039215686,-37.490196078431374,-122.9,-119.76,-232.37
32.45,161.50980392156862,303.5098039215686,-36.490196078431374,-126.4,-170.76,-281.61
32.5,-29.49019607843137,-78.0,-36.490196078431374,-150.24,-196.2,-307.58
32.55,-315.4901960784314,-13.0,-52.490196078431374,-149.4,-221.12,325.34
32.6,72.01960784313725,101.0,-21.49019607843137,-152.76,-244.36,-320.6
32.65,-181.98039215686273,183.0,-52.490196078431374,-127.31,-231.73,-273.95
32.7,238.52941176470588,297.0,-144.49019607843138,-102.36,-192.88,-205.56
32.75,317.52941176470586,-296.5098039215686,-236.49019607843138,-114.61,-122.81,-126.88
32.8,-117.98039215686275,-280.5098039215686,-283.4901960784314,-120.91,-79.72,-67.76
32.85,104.01960784313725,-280.5098039215686,-113.49019607843137,-121.15,-35.97,-28.56
32.9,41.01960784313726,-280.5098039215686,-206.49019607843138,-121.15,8.12,7.23
32.95,200.01960784313727,-263.5098039215686,-298.4901960784314,-74.22,31.22,54.87
33.0,-124.49019607843137,313.0,-144.49019607843138,-55.14,51.48,87.98
33.05,-13.490196078431373,199.0,-21.49019607843137,-17.2,49.49,96.13
33.1,-61.490196078431374,215.0,39.509803921568626,25.84,33.46,82.13
33.15,-204.49019607843138,215.0,39.509803921568626,37.35,30.76,71.49
33.2,279.01960784313724,215.0,70.50980392156863,10.75,36.19,75.76
33.25,263.01960784313724,101.0,70.50980392156863,-22.1,48.58,90.71
33.3,311.01960784313724,35.0,116.50980392156863,-4.99,36.75,95.64
33.35,-188.49019607843138,35.0,-6.490196078431373,-8.56,25.62,71.25
33.4,-124.49019607843137,-13.0,24.50980392156863,-1.94,14.98,31.87
33.45,-93.49019607843137,-13.0,70.50980392156863,-11.81,0.38,-14.95
33.5,-93.49019607843137,-29.0,101.50980392156863,-11.46,-12.14,-56.98
33.55,-156.49019607843138,3.0,86.50980392156863,-17.66,-7.8,-111.2
33.6,311.01960784313724,19.0,39.509803921568626,-119.12,14.03,-181.55
33.65,-101.98039215686275,-45.0,147.50980392156862,-220.03,91.07,-111.2
33.7,-229.98039215686273,19.0,209.50980392156862,-63.33,20.4,-55.02
33.75,145.50980392156862,-296.5098039215686,147.50980392156862,-43.35,13.44,-96.6
33.8,-204.49019607843138,133.0,270.5098039215686,-139.04,64.85,-144.48
33.85,152.01960784313727,68.0,316.5098039215686,-143.2,69.23,-120.19
33.9,-283.4901960784314,281.0,316.5098039215686,-145.51,37.94,-96.15
33.95,-61.490196078431374,215.0,-203.0,-105.86,-6.5,-101.5
34.0,34.509803921568626,297.0,-279.0,-17.17,-50.92,-113.75
34.05,2.5098039215686274,-247.50980392156862,239.50980392156862,1.34,-94.91,-117.11
34.1,-45.490196078431374,281.0,132.50980392156862,18.94,-100.41,-97.27
34.15,-252.49019607843138,264.0,-37.490196078431374,23.6,-78.18,-55.62
34.2,311.01960784313724,232.0,-221.49019607843138,-40.48,-45.88,10.38
34.25,311.01960784313724,117.0,-267.4901960784314,-132.32,-27.29,68.87
34.3,-172.49019607843138,183.0,-206.49019607843138,-179.11,-45.6,107.65
34.35,-140.49019607843138,-182.50980392156862,-160.49019607843138,-125.88,-83.96,122.17
34.4,-315.4901960784314,128.49019607843138,116.50980392156863,-109.85,-74.19,129.56
34.45,25.019607843137255,62.490196078431374,-233.0,19.5,-126.06,129.45
34.5,-299.4901960784314,-280.5098039215686,-172.0,288.65,-95.4,2.58
34.55,41.01960784313726,-116.50980392156863,-295.0,-70.72,-72.2,46.47
34.6,200.01960784313727,-301.4901960784314,-307.5098039215686,0.57,-39.51,-14.18
34.65,136.01960784313727,-296.5098039215686,273.0,70.95,-73.98,-26.39
34.7,-45.490196078431374,-67.50980392156863,212.0,2.11,-62.43,-1.09
34.75,-252.49019607843138,101.0,58.0,22.37,-38.25,4.61
34.8,263.01960784313724,-149.50980392156862,89.0,-43.49,-15.39,1.84
34.85,295.01960784313724,297.0,289.0,13.66,4.86,2.58
34.9,-299.4901960784314,-165.50980392156862,-261.5098039215686,32.14,3.15,5.06
34.95,-220.49019607843138,-280.5098039215686,258.0,51.95,22.85,22.84
35.0,-236.49019607843138,-214.50980392156862,-3.0,53.63,33.39,44.12
35.05,-172.49019607843138,-149.50980392156862,58.0,106.55,72.76,48.85
35.1,-204.49019607843138,30.49019607843137,-64.0,140.53,145.21,52.42
35.15,-299.4901960784314,226.49019607843138,316.5098039215686,178.51,196.42,24.94
35.2,311.01960784313724,307.4901960784314,224.50980392156862,107.21,249.09,34.18
35.25,-236.49019607843138,-100.50980392156863,178.50980392156862,178.86,262.5,47.52
35.3,-124.49019607843137,-67.50980392156863,-283.4901960784314,254.91,193.27,38.63
35.35,49.509803921568626,-116.50980392156863,-298.4901960784314,240.46,153.44,8.88
35.4,81.50980392156863,199.0,221.01960784313727,162.76,104.89,14.83
35.45,272.5098039215686,-45.0,-298.4901960784314,149.11,85.08,29.81
35.5,-290.0,-78.0,-267.4901960784314,128.25,63.31,37.96
35.55,-211.0,-160.0,-67.49019607843137,97.1,34.16,20.78
35.6,-116.0,-290.0,24.50980392156863,69.52,16.1,2.96
35.65,-4.0,270.5098039215686,55.509803921568626,26.29,4.13,-7.77
35.7,-20.0,172.50980392156862,-52.490196078431374,44.63,-12.1,1.81
35.75,58.0,270.5098039215686,-52.490196078431374,41.94,-19.56,4.78
35.8,90.0,90.50980392156863,-21.49019607843137,6.52,-24.42,-20.65
35.85,122.0,107.50980392156863,-113.49019607843137,-15.91,-22.39,-29.44
35.9,58.0,58.509803921568626,-190.49019607843138,16.21,-27.33,-5.95
35.95,154.0,123.50980392156863,-252.49019607843138,4.03,-13.22,0.51
36.0,11.0,107.50980392156863,-236.49019607843138,-11.11,-9.97,-4.45
36.05,122.0,58.509803921568626,-160.49019607843138,-17.06,-22.67,-2.0
36.1,170.0,74.50980392156863,-144.49019607843138,-54.09,-33.8,-17.26
36.15,106.0,58.509803921568626,-36.490196078431374,-119.3,-60.37,-44.59
36.2,27.0,90.50980392156863,178.50980392156862,-136.83,-117.42,-85.19
36.25,-116.0,-225.0,-233.0,-160.14,-175.24,-105.98
36.3,240.50980392156862,-241.0,-156.0,-154.89,-247.48,-149.45
36.35,-188.49019607843138,19.0,-218.0,-164.59,-303.13,-179.9
36.4,41.01960784313726,133.0,-203.0,-190.31,-316.92,-194.57
36.45,206.52941176470588,68.0,209.50980392156862,-113.42,-274.95,-178.08
36.5,-191.47058823529412,313.0,-83.49019607843137,-10.24,-191.86,-79.84
36.55,15.529411764705882,313.0,-313.4901960784314,-34.84,-125.08,0.27
36.6,-117.98039215686275,35.0,5.019607843137255,-94.52,-46.68,-4.59
36.65,231.01960784313727,-143.0,-40.98039215686274,-130.92,31.11,-9.52
36.7,-236.49019607843138,-78.0,36.01960784313726,-109.04,76.05,0.34
36.75,-188.49019607843138,117.0,206.01960784313727,-123.22,118.93,37.82
36.8,-299.4901960784314,117.0,-252.49019607843138,-151.74,130.58,88.29
36.85,311.01960784313724,101.0,-52.490196078431374,-111.98,114.8,111.29
36.9,311.01960784313724,232.0,-21.49019607843137,-58.78,87.25,115.77
36.95,-267.4901960784314,199.0,86.50980392156863,1.13,40.14,93.09
37.0,-93.49019607843137,232.0,101.50980392156863,65.81,1.57,53.64
37.05,-140.49019607843138,313.0,132.50980392156862,81.7,26.88,70.79
37.1,-315.4901960784314,-214.50980392156862,-6.490196078431373,28.22,46.83,123.64
37.15,-77.49019607843137,-84.50980392156863,-6.490196078431373,-24.62,57.05,168.3
37.2,65.50980392156863,-214.50980392156862,-37.490196078431374,-25.74,53.62,196.06
37.25,18.50980392156863,62.490196078431374,-190.49019607843138,28.08,60.44,223.25
37.3,18.50980392156863,-269.01960784313724,-313.4901960784314,21.95,90.47,265.11
37.35,97.50980392156863,-220.01960784313727,236.01960784313727,12.85,115.22,294.48
37.4,240.50980392156862,-204.01960784313727,175.01960784313727,-12.55,133.42,321.22
37.45,-275.0,-285.01960784313724,313.01960784313724,-60.74,113.15,-321.89
37.5,-52.0,258.4901960784314,-236.49019607843138,-99.38,63.31,-325.99
37.55,90.0,62.490196078431374,-21.49019607843137,-99.91,20.3,325.35
37.6,233.0,-51.509803921568626,209.50980392156862,-63.23,-22.15,297.31
37.65,313.0,215.0,239.50980392156862,5.01,-16.3,234.7
37.7,297.0,-62.0,316.5098039215686,-49.65,-8.29,164.77
37.75,249.0,172.50980392156862,-172.0,-14.93,-5.0,95.4
37.8,265.0,270.5098039215686,193.50980392156862,-30.01,-9.83,58.82
37.85,-202.50980392156862,107.50980392156863,178.50980392156862,-7.51,-16.27,36.04
37.9,-91.50980392156863,254.50980392156862,9.509803921568627,-48.91,-9.02,25.15
37.95,-59.509803921568626,156.50980392156862,-113.49019607843137,20.13,3.36,-3.75
38.0,-170.50980392156862,74.50980392156863,-283.4901960784314,33.12,-23.9,10.66
38.05,194.49019607843138,139.50980392156862,-129.49019607843138,30.07,-47.56,-8.47
38.1,115.49019607843137,58.509803921568626,101.50980392156863,-54.06,-18.3,-19.88
38.15,281.0,139.50980392156862,178.50980392156862,-72.78,-25.3,-16.98
38.2,-123.50980392156863,237.50980392156862,116.50980392156863,-43.07,-0.13,-33.95
38.25,-170.50980392156862,-127.0,-21.49019607843137,-15.31,11.9,-17.64
38.3,-139.50980392156862,303.5098039215686,298.01960784313724,12.57,-4.61,-1.82
38.35,-27.50980392156863,-241.0,-206.49019607843138,33.29,-9.27,-3.36
38.4,-27.50980392156863,303.5098039215686,-52.490196078431374,-34.7,-3.6,-7.53
38.45,-123.50980392156863,139.50980392156862,24.50980392156863,-32.85,2.83,22.81
38.5,-186.50980392156862,-274.0,-52.490196078431374,107.88,35.52,-20.51
38.55,-75.50980392156863,-225.0,-67.49019607843137,-34.21,56.8,-20.37
38.6,138.0,259.01960784313724,-160.49019607843138,130.7,-12.77,-95.03
38.65,265.0,-192.0,89.0,11.17,-60.44,-175.77
38.7,138.0,-121.49019607843137,-49.0,-158.15,-124.98,-268.59
38.75,122.0,-121.49019607843137,89.0,-252.09,-153.78,314.28
38.8,-116.0,101.0,-49.0,-178.76,-184.16,309.91
38.85,-211.0,-35.509803921568626,270.5098039215686,-103.51,-219.93,-303.35
38.9,193.50980392156862,-171.01960784313727,224.50980392156862,-69.04,-230.22,-246.19
38.95,-220.49019607843138,-192.52941176470588,-206.49019607843138,-99.03,-315.94,-185.57
39.0,-172.49019607843138,-106.01960784313725,-52.490196078431374,-114.82,-252.59,-97.23
39.05,-308.98039215686276,155.98039215686273,-283.4901960784314,-129.62,65.87,-33.67
39.1,317.52941176470586,155.98039215686273,-101.98039215686275,-34.81,-76.26,47.59
39.15,-20.0,297.0,-136.47058823529412,19.08,-85.67,23.02
39.2,311.01960784313724,-165.50980392156862,-141.0,-48.49,-63.17,-27.48
39.25,-220.49019607843138,-296.5098039215686,181.0,-73.27,-73.39,-33.95
39.3,-124.49019607843137,-312.5098039215686,-30.50980392156863,24.58,-87.56,-33.01
39.35,-77.49019607843137,193.49019607843138,-307.5098039215686,82.89,-85.53,-39.24
39.4,-220.49019607843138,144.49019607843138,73.0,75.96,-85.18,-13.76
39.45,-236.49019607843138,-165.50980392156862,243.0,132.1,-71.53,-23.17
39.5,-299.4901960784314,-35.509803921568626,58.0,71.41,-95.96,-35.32
39.55,-252.49019607843138,-133.50980392156862,58.0,141.97,-74.09,-15.79
39.6,-236.49019607843138,160.49019607843138,289.0,142.14,-71.25,-10.82
39.65,-45.490196078431374,-51.509803921568626,-246.50980392156862,186.66,-70.62,-9.28
39.7,2.5098039215686274,13.490196078431373,-199.50980392156862,122.82,-61.91,-0.95
39.75,-156.49019607843138,-231.50980392156862,181.0,144.21,-48.99,-18.48
39.8,311.01960784313724,-18.50980392156863,135.0,108.51,-47.8,-12.04
39.85,-204.49019607843138,-165.50980392156862,-92.50980392156863,57.58,-26.7,-15.61
39.9,-283.4901960784314,-247.50980392156862,166.0,44.39,-27.29,-23.87
39.95,-252.49019607843138,-214.50980392156862,166.0,-12.37,-5.91,-19.99
40.0,-267.4901960784314,-198.50980392156862,135.0,30.63,3.67,-18.97
40.05,311.01960784313724,-84.50980392156863,120.0,33.57,1.89,-26.99
40.1,-236.49019607843138,-247.50980392156862,135.0,10.96,-5.21,-20.58
40.15,-299.4901960784314,-312.5098039215686,58.0,34.8,-15.39,-16.59
40.2,-252.49019607843138,-149.50980392156862,27.0,88.84,-33.94,-12.29
40.25,-188.49019607843138,-165.50980392156862,-49.0,134.44,-46.72,-11.66
40.3,216.01960784313727,-247.50980392156862,-110.0,140.71,-21.59,-26.71
40.35,184.01960784313727,-296.5098039215686,-126.0,103.12,-34.47,-13.06
40.4,-29.49019607843137,297.0,-95.0,80.05,-25.65,-26.11
40.45,-156.49019607843138,264.0,-141.0,138.99,-38.18,-44.28
40.5,-108.49019607843137,281.0,-264.0,36.65,-44.13,6.43
40.55,216.01960784313727,199.0,316.5098039215686,99.65,3.53,16.02
40.6,-197.98039215686273,-296.5098039215686,-233.0,-35.4,21.8,41.43
40.65,120.01960784313725,101.0,273.0,63.57,8.4,33.2
40.7,231.01960784313727,-67.50980392156863,58.0,-52.2,37.52,52.21
40.75,200.01960784313727,-29.0,73.0,-32.6,23.17,26.2
40.8,216.01960784313727,-165.50980392156862,-187.0,-15.7,45.32,51.37
40.85,247.01960784313727,-100.50980392156863,301.5098039215686,1.83,11.86,62.04
40.9,-61.490196078431374,-133.50980392156862,-64.0,50.97,3.64,4.05
40.95,2.5098039215686274,-296.5098039215686,12.0,13.31,-4.96,11.64
41.0,272.5098039215686,52.0,27.0,68.71,7.07,-35.56
41.05,177.50980392156862,297.0,-249.0,109.14,11.86,-31.4
41.1,113.50980392156863,-231.50980392156862,27.0,86.28,5.91,-15.82
41.15,295.01960784313724,-116.50980392156863,-218.0,33.78,20.37,-2.73
41.2,-229.98039215686273,128.49019607843138,301.5098039215686,-81.5,69.96,64.74
41.25,190.52941176470588,-84.50980392156863,24.50980392156863,-52.55,89.04,46.33
41.3,-267.4901960784314,84.0,209.50980392156862,2.07,25.3,11.47
41.35,-36.0,264.0,-249.0,120.3,-5.56,-2.91
41.4,-100.0,-263.5098039215686,-203.0,99.97,-37.51,-59.19
41.45,193.50980392156862,-45.0,-156.0,22.13,37.1,-34.79
41.5,57.01960784313726,19.0,-83.49019607843137,7.11,40.98,15.42
41.55,231.01960784313727,291.4901960784314,-313.4901960784314,68.54,6.3,-4.03
41.6,295.01960784313724,-84.50980392156863,-190.49019607843138,-73.97,69.58,37.23
41.65,-133.98039215686273,319.5098039215686,163.50980392156862,-63.86,46.9,44.16
41.7,-236.49019607843138,264.0,-175.49019607843138,-92.28,22.19,15.6
41.75,-172.49019607843138,-214.50980392156862,301.5098039215686,18.98,8.33,6.67
41.8,-172.49019607843138,-133.50980392156862,-67.49019607843137,-61.72,47.21,-8.86
41.85,97.50980392156863,-111.0,86.50980392156863,-98.89,85.01,-51.17
41.9,304.5098039215686,133.0,-67.49019607843137,-187.27,97.37,-51.21
41.95,-179.0,117.0,24.50980392156863,-23.01,119.17,-69.06
42.0,-259.0,-51.509803921568626,224.50980392156862,90.34,7.94,-12.71
42.05,320.5098039215686,-302.01960784313724,-21.49019607843137,-6.98,-62.47,-21.0
42.1,-220.49019607843138,209.49019607843138,209.50980392156862,-161.12,-11.44,48.32
42.15,-220.49019607843138,95.49019607843137,270.5098039215686,-100.71,-26.38,72.89
42.2,208.50980392156862,209.49019607843138,86.50980392156863,-108.94,-33.56,88.36
42.25,304.5098039215686,95.49019607843137,132.50980392156862,-45.2,-55.29,37.75
42.3,-45.490196078431374,-51.509803921568626,-221.49019607843138,-20.77,-27.43,35.9
42.35,72.01960784313725,-286.01960784313724,270.5098039215686,-39.88,-13.54,24.1
42.4,-172.49019607843138,128.49019607843138,-172.0,-132.84,11.83,44.86
42.45,-140.49019607843138,73.98039215686275,73.0,-207.11,75.84,102.71
42.5,272.5098039215686,128.49019607843138,-187.0,69.2,43.29,137.85
42.55,138.0,57.98039215686274,-126.0,157.02,73.04,32.43
42.6,-36.0,-312.5098039215686,-33.0,2.18,-11.72,-119.0
42.65,-68.0,25.50980392156863,289.0,163.28,-86.76,-218.02
42.7,-306.0,84.0,258.0,-303.11,-119.38,-237.2
42.75,136.01960784313727,144.49019607843138,-187.0,104.8,-95.61,-99.79
42.8,301.52941176470586,-204.01960784313727,86.50980392156863,-59.8,102.48,-50.51
42.85,47.529411764705884,275.4901960784314,21.019607843137255,-159.23,171.39,-78.37
42.9,263.01960784313724,-2.5098039215686274,-70.98039215686275,-114.75,157.95,9.65
42.95,-61.490196078431374,-155.01960784313727,86.50980392156863,-50.21,25.27,58.58
43.0,-20.0,-133.50980392156862,-249.0,83.03,-63.9,31.59
43.05,-227.0,-312.5098039215686,135.0,174.52,-88.68,-25.83
43.1,311.01960784313724,46.490196078431374,-279.0,-9.43,77.31,18.05
43.15,-64.47058823529412,232.0,129.01960784313727,-108.76,226.27,-27.3
43.2,-22.980392156862745,150.0,129.01960784313727,-114.54,263.48,-3.78
43.25,-227.0,-100.50980392156863,86.50980392156863,-46.64,232.78,40.24
43.3,74.0,62.490196078431374,12.0,-6.6,132.09,37.09
43.35,249.0,-263.5098039215686,-122.50980392156863,79.49,-6.89,-77.14
43.4,-313.5098039215686,-209.0,-64.0,-11.15,-85.29,-160.09
43.45,-20.0,-78.0,-36.490196078431374,-190.1,-93.65,-70.14
43.5,-243.0,-280.5098039215686,-236.49019607843138,58.88,-113.71,-1.44
43.55,-163.0,-12.529411764705882,-193.98039215686273,85.62,-90.47,57.46
43.6,-36.0,-122.01960784313725,-24.980392156862745,172.7,-35.34,144.89
43.65,-195.0,-122.01960784313725,98.01960784313725,89.4,49.98,177.68
43.7,-227.0,-84.50980392156863,113.01960784313725,68.92,103.6,195.11
43.75,-290.0,275.4901960784314,-147.98039215686273,49.64,135.2,217.58
43.8,288.5098039215686,57.98039215686274,-193.98039215686273,-122.45,161.1,248.03
43.85,272.5098039215686,8.980392156862745,206.01960784313727,-207.11,94.46,312.57
43.9,-116.0,-73.01960784313725,70.50980392156863,-201.2,-5.77,315.13
43.95,-4.0,193.49019607843138,-233.0,-153.56,-51.06,263.29
44.0,-4.0,-247.50980392156862,-249.0,-251.07,-12.66,167.22
44.05,-116.0,3.0,301.5098039215686,-252.72,-2.34,104.46
44.1,27.0,183.0,-310.0,-63.02,0.17,63.41
44.15,265.0,-116.50980392156863,70.50980392156863,6.69,-2.9,13.39
44.2,-11.509803921568627,-312.5098039215686,-279.0,1.2,28.7,-22.82
44.25,35.490196078431374,232.0,-249.0,66.26,21.31,-35.63
44.3,-289.01960784313724,-149.50980392156862,301.5098039215686,78.44,-4.93,-24.36
44.35,194.49019607843138,-198.50980392156862,-310.0,60.91,26.67,-22.54
44.4,-75.50980392156863,248.0,-295.0,115.68,28.73,8.95
44.45,178.49019607843138,-116.50980392156863,286.5098039215686,166.78,11.65,14.55
44.5,178.49019607843138,264.0,193.50980392156862,271.54,4.83,15.53
44.55,4.490196078431373,313.0,-83.49019607843137,153.87,-7.38,-44.91
44.6,-75.50980392156863,303.5098039215686,-249.0,32.1,2.45,-132.13
44.65,297.0,-138.49019607843138,-233.0,5.96,-30.79,-236.04
44.7,313.0,90.50980392156863,-79.0,-104.91,-91.41,-295.51
44.75,-282.5098039215686,254.50980392156862,135.0,-116.36,-131.63,301.86
44.8,58.0,281.0,227.0,53.1,-162.81,-309.65
44.85,-131.0,-57.01960784313726,-80.0,114.32,-218.39,-204.82
44.9,256.5098039215686,318.98039215686276,-126.0,173.78,-246.39,-110.15
44.95,-227.0,-269.01960784313724,239.50980392156862,162.62,-203.66,-60.9
45.0,-267.4901960784314,8.980392156862745,-6.490196078431373,149.81,-162.15,-46.59
45.05,-204.49019607843138,-51.509803921568626,24.50980392156863,153.24,-132.22,-80.01
45.1,152.01960784313727,-18.50980392156863,-6.490196078431373,51.91,-59.28,-54.25
45.15,-101.98039215686275,248.0,163.50980392156862,-59.13,-31.77,-36.16
45.2,57.01960784313726,215.0,-98.49019607843137,94.37,-71.39,-20.23
45.25,104.01960784313725,-67.50980392156863,55.509803921568626,116.52,-78.39,-14.21
45.3,-117.98039215686275,52.0,-126.0,65.32,-67.33,7.3
45.35,-101.98039215686275,68.0,206.01960784313727,120.72,-45.6,63.34
45.4,301.52941176470586,-51.509803921568626,43.0,55.24,-6.78,114.19
45.45,-229.98039215686273,-94.0,147.50980392156862,75.47,8.08,113.74
45.5,-165.98039215686273,-182.50980392156862,163.50980392156862,-12.58,42.21,117.24
45.55,-6.980392156862745,101.0,286.5098039215686,44.42,22.4,97.46
45.6,-299.4901960784314,-133.50980392156862,270.5098039215686,-18.32,55.26,87.1
45.65,-299.4901960784314,150.0,116.50980392156863,37.0,14.24,68.27
45.7,2.5098039215686274,-100.50980392156863,70.50980392156863,36.09,27.47,92.18
45.75,-156.49019607843138,-35.509803921568626,270.5098039215686,36.02,48.51,89.31
45.8,-204.49019607843138,-2.5098039215686274,9.509803921568627,28.15,44.06,66.35
45.85,-13.490196078431373,-280.5098039215686,132.50980392156862,99.86,-47.38,32.33
45.9,129.50980392156862,-263.5098039215686,-3.0,-7.75,-55.96,-22.86
45.95,65.50980392156863,254.50980392156862,27.0,-6.32,-5.21,-42.32
46.0,65.50980392156863,-312.5098039215686,175.01960784313727,-13.18,30.1,-52.71
46.05,177.50980392156862,-198.50980392156862,-236.49019607843138,43.34,-10.98,-34.97
46.1,224.50980392156862,-67.50980392156863,301.5098039215686,46.1,-30.55,-29.82
46.15,2.5098039215686274,-149.50980392156862,286.5098039215686,1.65,13.3,-53.62
46.2,-188.49019607843138,-198.50980392156862,313.01960784313724,18.91,14.03,-56.46
46.25,-108.49019607843137,-214.50980392156862,-144.49019607843138,9.74,17.5,-50.02
46.3,-220.49019607843138,-133.50980392156862,-267.4901960784314,-2.5,48.75,-12.08
46.35,65.50980392156863,215.0,-175.49019607843138,51.6,47.28,1.25
46.4,-61.490196078431374,264.0,-267.4901960784314,35.32,43.26,16.12
46.45,-140.49019607843138,35.0,-160.49019607843138,32.63,45.29,8.14
46.5,-140.49019607843138,150.0,-83.49019607843137,8.44,55.02,14.16
46.55,-93.49019607843137,150.0,-21.49019607843137,-5.3,59.81,23.61
46.6,49.509803921568626,183.0,-37.490196078431374,-60.08,48.09,55.39
46.65,208.50980392156862,68.0,-37.490196078431374,19.26,45.92,-56.14
46.7,-77.49019607843137,150.0,-52.490196078431374,-110.13,102.48,-17.22
46.75,-188.49019607843138,-192.0,-190.49019607843138,-102.88,76.65,-73.26
46.8,129.50980392156862,166.0,86.50980392156863,-295.24,127.64,-73.99
46.85,65.50980392156863,-78.0,70.50980392156863,-237.77,69.68,-72.73
46.9,-147.0,-263.5098039215686,316.5098039215686,-82.44,29.15,-78.58
46.95,-306.0,275.4901960784314,-175.49019607843138,-84.75,-71.64,-29.05
47.0,138.0,-236.01960784313727,289.0,-71.35,-81.58,51.72
47.05,170.0,-106.01960784313725,-249.0,95.84,-84.24,112.34
47.1,265.0,106.98039215686275,178.50980392156862,-9.89,-44.06,118.46
47.15,-68.0,13.490196078431373,-67.49019607843137,-10.13,-55.29,111.95
47.2,-147.0,144.49019607843138,39.509803921568626,-12.76,-80.56,109.26
47.25,-259.0,-269.01960784313724,86.50980392156863,-51.33,-135.16,117.66
47.3,240.50980392156862,-138.01960784313727,132.50980392156862,-4.43,-188.78,111.36
47.35,320.5098039215686,-187.01960784313727,255.50980392156862,16.35,-156.97,135.61
47.4,224.50980392156862,-138.01960784313727,73.0,-87.34,-127.53,137.82
47.45,90.0,-51.509803921568626,-156.0,-22.1,-131.03,124.66
47.5,281.0,160.49019607843138,239.50980392156862,74.8,-103.35,133.23
47.55,11.0,-8.019607843137255,270.5098039215686,32.31,-129.42,123.15
47.6,281.0,193.49019607843138,73.0,18.03,-129.53,93.54
47.65,154.0,177.49019607843138,-80.0,-4.67,-104.5,59.35
47.7,90.0,30.49019607843137,101.50980392156863,1.23,-87.49,40.2
47.75,74.0,177.49019607843138,301.5098039215686,-20.56,-72.69,34.22
47.8,27.0,193.49019607843138,255.50980392156862,-19.44,-34.92,-2.87
47.85,217.0,62.490196078431374,70.50980392156863,-22.38,0.87,-8.72
47.9,-68.0,258.4901960784314,-21.49019607843137,-6.11,39.86,-24.36
47.95,122.0,128.49019607843138,-249.0,24.09,34.82,-26.22
48.0,249.0,291.4901960784314,-190.49019607843138,35.67,48.51,-63.21
48.05,42.0,209.49019607843138,39.509803921568626,15.9,47.88,-73.26
48.1,-211.0,-220.01960784313727,-129.49019607843138,4.52,49.31,-75.36
48.15,-195.0,242.49019607843138,209.50980392156862,21.43,55.47,-74.48
48.2,122.0,-18.50980392156863,-160.49019607843138,52.65,53.69,-60.94
48.25,217.0,95.49019607843137,-298.4901960784314,29.23,42.94,-35.63
48.3,106.0,95.49019607843137,147.50980392156862,25.21,51.31,-26.74
48.35,154.0,-18.50980392156863,-52.490196078431374,-114.89,71.05,-21.63
48.4,201.0,-231.50980392156862,-113.49019607843137,-101.76,69.68,-23.56
48.45,233.0,-84.50980392156863,-83.49019607843137,-211.38,40.46,-32.17
48.5,-266.5098039215686,-149.50980392156862,224.50980392156862,-15.8,12.81,-16.98
48.55,-59.509803921568626,95.49019607843137,-172.0,299.12,-154.27,-26.99
48.6,131.49019607843138,24.980392156862745,27.0,302.93,-213.63,-24.01
48.65,-154.50980392156862,-133.50980392156862,-199.50980392156862,243.08,-212.27,-49.04
48.7,-131.0,-165.50980392156862,-95.0,119.88,-252.34,-73.89
48.75,113.50980392156863,-62.0,286.5098039215686,138.75,-151.4,-28.6
48.8,9.019607843137255,-312.5098039215686,-67.49019607843137,29.58,-62.96,33.66
48.85,-181.98039215686273,117.0,52.01960784313726,54.5,-84.1,34.85
48.9,-220.49019607843138,19.0,144.01960784313727,-105.02,-26.1,23.68
48.95,295.01960784313724,199.0,-144.49019607843138,-157.76,-0.8,43.04
49.0,216.01960784313727,-182.50980392156862,-98.49019607843137,-134.87,-12.42,73.45
49.05,49.509803921568626,-165.50980392156862,-67.49019607843137,-253.91,-32.4,56.3
49.1,113.50980392156863,281.0,-64.0,-279.18,-41.01,-1.68
49.15,-283.4901960784314,-182.50980392156862,58.0,-184.99,-22.67,-3.89
49.2,-252.49019607843138,242.49019607843138,-79.0,-82.06,-3.88,-25.06
49.25,81.50980392156863,-165.50980392156862,-49.0,88.87,22.68,-26.71
49.3,81.50980392156863,95.49019607843137,212.0,226.04,21.14,-125.13
49.35,-156.49019607843138,-2.5098039215686274,-33.0,266.11,-50.57,-106.96
49.4,-93.49019607843137,-18.50980392156863,-187.0,306.15,-37.58,-49.77
49.45,-29.49019607843137,291.4901960784314,224.50980392156862,-161.68,-41.26,-65.07
49.5,-267.4901960784314,-165.50980392156862,301.5098039215686,163.81,-22.04,11.96
49.55,41.01960784313726,74.50980392156863,-110.0,170.53,-15.43,38.42
49.6,279.01960784313724,297.0,147.50980392156862,145.12,-4.82,-36.96
49.65,168.01960784313727,-209.0,-187.0,26.36,-0.73,-38.54
49.7,-267.4901960784314,-225.0,193.50980392156862,-123.29,-17.32,-29.72
49.75,-140.49019607843138,-209.0,316.5098039215686,-13.88,-18.72,-38.57
49.8,-283.4901960784314,101.0,-233.0,-42.68,-23.48,-34.97
49.85,-267.4901960784314,19.0,-310.0,44.42,-16.06,7.34
49.9,-283.4901960784314,117.0,224.50980392156862,-19.51,1.71,1.32
49.95,200.01960784313727,-111.0,147.50980392156862,38.16,32.2,-1.4
50.0,-315.4901960784314,19.0,193.50980392156862,4.8,26.84,-5.01
50.05,-236.49019607843138,-160.0,178.50980392156862,-33.23,12.88,-30.49
50.1,311.01960784313724,-176.0,193.50980392156862,-54.02,-6.78,-14.7
50.15,263.01960784313724,-45.0,193.50980392156862,-26.93,1.64,-22.68
50.2,231.01960784313727,-13.0,224.50980392156862,-69.81,21.21,25.75
50.25,168.01960784313727,3.0,132.50980392156862,-276.1,139.93,111.5
50.3,-6.980392156862745,-45.0,39.509803921568626,-261.71,169.68,175.83
50.35,-181.98039215686273,-312.5098039215686,9.509803921568627,-166.48,192.01,193.36
50.4,-54.98039215686274,-253.01960784313727,-160.49019607843138,23.21,90.68,118.04
50.45,311.01960784313724,62.490196078431374,-295.0,-44.64,123.58,72.16
50.5,184.01960784313727,139.50980392156862,-218.0,-195.98,135.27,-56.53
50.55,240.50980392156862,150.0,9.509803921568627,-323.1,212.83,-95.2
50.6,-36.0,-165.50980392156862,-267.4901960784314,-235.39,253.85,-60.41
50.65,233.0,-67.50980392156863,-126.0,22.13,237.58,-46.06
50.7,-298.5098039215686,-2.5098039215686274,227.0,230.59,76.3,-71.79
50.75,-75.50980392156863,-116.50980392156863,-215.50980392156862,231.67,-90.82,-31.19
50.8,-298.5098039215686,128.49019607843138,58.0,237.87,-147.48,-14.04
50.85,34.509803921568626,-286.01960784313724,193.50980392156862,219.28,-65.72,4.57
50.9,-124.49019607843137,-84.50980392156863,129.01960784313727,-72.43,18.09,42.44
50.95,25.019607843137255,-258.0,247.52941176470588,-140.19,85.01,4.82
51.0,263.01960784313724,-231.50980392156862,-6.490196078431373,-34.18,-24.67,0.55
51.05,-179.0,-165.50980392156862,-175.49019607843138,-276.87,38.57,-7.81
51.1,-259.0,-62.0,270.5098039215686,-12.76,-8.36,18.85
51.15,-275.0,-155.01960784313727,-267.4901960784314,-88.92,-17.74,13.67
51.2,-211.0,-67.50980392156863,163.50980392156862,-94.69,-25.33,32.61
51.25,224.50980392156862,275.4901960784314,-144.49019607843138,-29.38,-39.93,24.14
51.3,208.50980392156862,13.490196078431373,86.50980392156863,164.4,-89.8,23.96
51.35,304.5098039215686,-302.01960784313724,163.50980392156862,15.62,-46.86,76.25
51.4,2.5098039215686274,-35.509803921568626,193.50980392156862,-57.98,27.93,84.83
51.45,216.01960784313727,275.4901960784314,-267.4901960784314,-182.68,76.75,150.38
51.5,-61.490196078431374,-187.01960784313727,70.50980392156863,-116.99,49.0,149.75
51.55,-243.0,128.49019607843138,255.50980392156862,-142.78,12.74,127.28
51.6,90.0,-187.01960784313727,209.50980392156862,2.11,27.79,106.49
51.65,313.0,144.49019607843138,-52.490196078431374,228.77,83.4,-138.92
51.7,-20.0,205.50980392156862,55.509803921568626,85.55,63.84,-178.5
51.75,58.0,248.0,9.509803921568627,-202.21,-89.24,-144.9
51.8,-36.0,-187.01960784313727,-3.0,-282.15,-198.76,-63.49
51.85,304.5098039215686,-57.01960784313726,209.50980392156862,55.03,-99.22,-61.78
51.9,-124.49019607843137,-62.0,-67.49019607843137,39.66,-64.04,-43.47
51.95,161.50980392156862,-231.50980392156862,-9.980392156862745,130.28,-87.0,-42.0
52.0,161.50980392156862,215.0,252.01960784313727,29.55,-37.72,-27.69
52.05,-77.49019607843137,-13.0,252.01960784313727,96.43,-38.56,-21.6
52.1,-93.49019607843137,166.0,-221.49019607843138,64.44,-57.6,-22.3
52.15,-124.49019607843137,3.0,86.50980392156863,15.86,-92.85,-91.88
52.2,-220.49019607843138,172.50980392156862,116.50980392156863,-114.22,-45.04,-47.29
52.25,-283.4901960784314,84.0,9.509803921568627,-105.44,-37.3,-18.66
52.3,247.01960784313727,35.0,178.50980392156862,-192.97,38.5,12.9
52.35,152.01960784313727,35.0,116.50980392156863,-201.2,119.91,37.86
52.4,-70.98039215686275,-198.50980392156862,-52.490196078431374,-320.51,176.5,84.51
52.45,-236.49019607843138,199.0,24.50980392156863,-162.49,168.14,28.44
52.5,34.509803921568626,-133.50980392156862,-236.49019607843138,-205.89,209.3,13.43
52.55,2.5098039215686274,-116.50980392156863,-52.490196078431374,-109.15,210.84,-7.21
52.6,81.50980392156863,30.49019607843137,-21.49019607843137,-145.97,195.79,-51.31
52.65,304.5098039215686,264.0,101.50980392156863,-216.63,211.01,-28.91
52.7,-163.0,226.49019607843138,239.50980392156862,-61.86,143.46,4.61
52.75,42.0,258.4901960784314,-203.0,-9.15,122.25,-1.16
52.8,-36.0,275.4901960784314,-95.0,-35.05,85.33,-19.71
52.85,-20.0,46.490196078431374,73.0,76.06,64.92,-30.77
52.9,-84.0,307.4901960784314,-126.0,89.64,58.73,-59.85
52.95,-116.0,177.49019607843138,-18.0,55.34,45.04,-96.46
53.0,-100.0,258.4901960784314,58.0,104.59,37.59,-100.49
53.05,-179.0,291.4901960784314,-279.0,118.38,48.72,-105.25
53.1,-179.0,128.49019607843138,239.50980392156862,99.58,63.14,-98.32
53.15,-195.0,111.49019607843137,86.50980392156863,83.66,75.07,-122.47
53.2,224.50980392156862,13.490196078431373,-6.490196078431373,-37.43,71.92,-159.64
53.25,81.50980392156863,226.49019607843138,-36.490196078431374,-85.07,81.41,-173.5
53.3,65.50980392156863,-35.509803921568626,-83.49019607843137,-54.79,68.21,-164.47
53.35,193.50980392156862,242.49019607843138,-129.49019607843138,-57.0,57.33,-162.58
53.4,224.50980392156862,111.49019607843137,55.509803921568626,-27.81,29.82,-162.37
53.45,272.5098039215686,128.49019607843138,70.50980392156863,-41.42,9.34,-161.07
53.5,177.50980392156862,13.490196078431373,116.50980392156863,-12.79,-15.39,-154.11
53.55,145.50980392156862,95.49019607843137,86.50980392156863,1.27,-23.02,-143.26
53.6,81.50980392156863,30.49019607843137,-37.490196078431374,14.85,-31.46,-135.52
53.65,18.50980392156863,-133.50980392156862,-37.490196078431374,-1.66,-17.81,-144.45
53.7,-140.49019607843138,313.0,-175.49019607843138,-75.79,-22.81,-138.71
53.75,-188.49019607843138,117.0,-52.490196078431374,-38.24,-52.46,-97.16
53.8,-172.49019607843138,166.0,-98.49019607843137,-28.51,-33.52,-63.63
53.85,-188.49019607843138,19.0,-175.49019607843138,-71.59,9.87,-44.77
53.9,-156.49019607843138,-111.0,9.509803921568627,-60.32,20.16,-20.58
53.95,-108.49019607843137,19.0,209.50980392156862,-84.54,19.6,4.92
54.0,-77.49019607843137,-29.0,255.50980392156862,-30.75,20.58,12.13
54.05,-156.49019607843138,19.0,116.50980392156863,-39.29,27.79,24.56
54.1,-204.49019607843138,3.0,39.509803921568626,-63.12,44.62,42.13
54.15,-236.49019607843138,35.0,70.50980392156863,-61.16,61.21,58.72
54.2,-140.49019607843138,232.0,-37.490196078431374,-105.65,87.04,55.74
54.25,-61.490196078431374,248.0,-160.49019607843138,-163.64,102.27,64.32
54.3,34.509803921568626,281.0,-313.4901960784314,-244.04,118.09,73.98
54.35,81.50980392156863,199.0,-175.49019607843138,-214.29,123.58,78.6
54.4,161.50980392156862,-51.509803921568626,-298.4901960784314,-168.12,114.59,74.64
54.45,240.50980392156862,-149.50980392156862,-221.49019607843138,-57.14,106.96,54.31
54.5,-227.0,30.49019607843137,-6.490196078431373,-62.39,143.95,2.02
54.55,-211.0,101.0,-221.49019607843138,-256.6,65.03,53.19
54.6,90.0,-290.52941176470586,-160.49019607843138,15.39,-3.18,51.26
54.65,-298.5098039215686,-269.01960784313724,-113.49019607843137,216.83,21.7,-47.36
54.7,-36.0,286.5098039215686,-144.49019607843138,112.57,15.26,-55.06
54.75,-211.0,297.0,-9.980392156862745,53.42,7.1,-34.51
54.8,-100.0,150.0,-129.49019607843138,43.69,0.66,-26.22
54.85,11.0,101.0,-236.49019607843138,35.78,-7.24,-25.17
54.9,58.0,-78.0,-129.49019607843138,17.33,-7.27,-30.59
54.95,90.0,-127.0,-236.49019607843138,14.15,-13.64,-25.2
55.0,138.0,-209.0,-190.49019607843138,-6.04,-12.24,-24.71
55.05,74.0,-274.0,-283.4901960784314,8.86,-18.44,-20.79
55.1,106.0,303.5098039215686,-298.4901960784314,-10.45,-16.83,-31.68
55.15,42.0,286.5098039215686,-267.4901960784314,-24.2,-23.09,-53.34
55.2,-20.0,-241.0,-267.4901960784314,-141.98,-38.56,-92.82
55.25,-131.0,319.5098039215686,-52.490196078431374,-271.34,-62.29,-174.65
55.3,304.5098039215686,-225.0,193.50980392156862,-300.42,-87.88,-251.97
55.35,18.50980392156863,84.0,270.5098039215686,321.58,-52.28,-289.91
55.4,-315.4901960784314,297.0,193.50980392156862,-141.77,-56.9,-298.59
55.45,311.01960784313724,-100.50980392156863,178.50980392156862,-146.88,-93.65,-303.52
55.5,72.01960784313725,-214.50980392156862,224.50980392156862,-85.42,-84.62,-283.26
55.55,-276.98039215686276,-35.509803921568626,9.509803921568627,-18.08,-83.96,-222.15
55.6,-22.980392156862745,-51.509803921568626,-144.49019607843138,-65.4,-64.71,-160.69
55.65,168.01960784313727,-280.5098039215686,116.50980392156863,-183.98,-21.62,-110.01
55.7,152.01960784313727,264.0,178.50980392156862,-209.0,-2.69,-77.25
55.75,295.01960784313724,-263.5098039215686,193.50980392156862,-143.9,-12.7,-50.05
55.8,-156.49019607843138,-84.50980392156863,86.50980392156863,-32.39,-35.55,-31.61
55.85,-124.49019607843137,-51.509803921568626,55.509803921568626,-12.34,-36.71,-14.39
55.9,-267.4901960784314,-182.50980392156862,-6.490196078431373,39.42,-35.1,13.36
55.95,216.01960784313727,-133.50980392156862,-206.49019607843138,59.96,2.31,79.86
56.0,247.01960784313727,-67.50980392156863,-283.4901960784314,125.83,20.79,137.15
56.05,231.01960784313727,-198.50980392156862,-98.49019607843137,126.5,66.64,152.76
56.1,120.01960784313725,297.0,86.50980392156863,97.31,102.09,148.04
56.15,152.01960784313727,248.0,163.50980392156862,10.05,112.59,131.03
56.2,152.01960784313727,183.0,209.50980392156862,-38.66,105.28,119.62
56.25,200.01960784313727,183.0,-279.0,-36.94,79.31,104.32
56.3,-299.4901960784314,264.0,-203.0,-11.71,45.92,91.93
56.35,-156.49019607843138,297.0,-172.0,32.59,0.24,74.64
56.4,-77.49019607843137,281.0,-172.0,42.88,-28.2,34.04
56.45,-172.49019607843138,215.0,-279.0,-5.02,-32.51,11.29
56.5,-283.4901960784314,199.0,301.5098039215686,-46.78,-30.86,-13.79
56.55,279.01960784313724,313.0,101.50980392156863,-171.76,6.65,-21.11
56.6,136.01960784313727,-116.50980392156863,163.50980392156862,-216.35,7.38,20.92
56.65,-29.49019607843137,62.490196078431374,86.50980392156863,-66.83,-14.03,44.16
56.7,320.5098039215686,291.4901960784314,39.509803921568626,-94.2,51.48,49.62
56.75,240.50980392156862,160.49019607843138,224.50980392156862,-119.68,67.09,84.76
56.8,-147.0,-302.01960784313724,255.50980392156862,-110.37,69.86,97.01
56.85,-20.0,307.4901960784314,-295.0,-28.86,31.67,110.31
56.9,201.0,307.4901960784314,193.50980392156862,40.05,-2.62,95.36
56.95,58.0,111.49019607843137,270.5098039215686,84.04,-27.61,93.3
57.0,-36.0,-318.01960784313724,193.50980392156862,-117.44,36.29,53.57
57.05,113.50980392156863,117.0,144.01960784313727,77.85,-39.09,61.59
57.1,201.0,106.98039215686275,39.509803921568626,-81.67,-72.93,27.11
57.15,154.0,226.49019607843138,104.0,-14.26,-120.71,52.87
57.2,170.0,40.98039215686274,-295.0,38.47,-135.72,64.84
57.25,90.0,-220.01960784313727,-64.0,71.41,-108.28,71.77
57.3,-84.0,-187.01960784313727,-310.0,203.92,-81.75,88.15
57.35,-20.0,-73.01960784313725,116.50980392156863,72.07,-78.85,85.25
57.4,-68.0,-247.50980392156862,-18.0,-15.84,-103.35,39.61
57.45,-4.0,281.0,12.0,-28.96,-31.25,23.16
57.5,-227.0,177.49019607843138,39.509803921568626,-27.81,-8.25,5.83
57.55,-52.0,-165.50980392156862,-310.0,9.28,17.46,-8.68
57.6,42.0,-285.01960784313724,116.50980392156863,47.71,53.93,-34.13
57.65,-20.0,-318.01960784313724,55.509803921568626,23.18,100.59,-54.95
57.7,106.0,-318.01960784313724,-236.49019607843138,17.3,99.08,-46.41
57.75,-84.0,-220.01960784313727,39.509803921568626,26.33,77.07,-51.24
57.8,-36.0,62.490196078431374,224.50980392156862,-13.39,76.47,-70.88
57.85,-52.0,-84.50980392156863,-249.0,-75.83,90.3,-79.59
57.9,11.0,-100.50980392156863,-172.0,-67.39,93.62,-65.52
57.95,201.0,160.49019607843138,-203.0,-89.2,92.15,-52.15
58.0,-266.5098039215686,209.49019607843138,-310.0,-117.34,95.76,-34.02
58.05,-298.5098039215686,242.49019607843138,101.50980392156863,-107.54,58.48,0.83
58.1,-139.50980392156862,-302.01960784313724,101.50980392156863,-19.93,-8.81,26.97
58.15,186.0,-40.01960784313726,147.50980392156862,1.48,-44.86,10.1
58.2,-186.50980392156862,-155.01960784313727,-264.0,-12.41,-89.52,14.65
58.25,-282.5098039215686,-8.019607843137255,-18.0,45.16,-98.73,27.36
58.3,138.0,-8.019607843137255,-141.0,113.65,-150.6,32.78
58.35,42.0,193.49019607843138,-3.0,73.23,-119.1,5.27
58.4,-131.0,-204.01960784313727,-79.0,-36.31,-60.54,-26.92
58.45,-116.0,-247.50980392156862,-172.0,18.84,-57.36,-27.16
58.5,27.0,95.49019607843137,-249.0,37.21,-39.75,-24.78
58.55,-4.0,144.49019607843138,-233.0,-18.11,-13.85,-24.12
58.6,-4.0,95.49019607843137,-110.0,3.89,19.74,-5.18
58.65,-4.0,226.49019607843138,-203.0,-34.63,42.56,-13.44
58.7,-36.0,62.490196078431374,-203.0,-35.72,55.47,-41.27
58.75,-131.0,-318.01960784313724,-18.0,-44.12,87.08,-54.11
58.8,-179.0,-253.01960784313727,316.5098039215686,-79.71,116.37,-41.27
58.85,-179.0,73.98039215686275,132.50980392156862,-8.31,104.12,32.01
58.9,240.50980392156862,-187.01960784313727,-33.0,-15.17,92.5,3.42
58.95,217.0,-318.01960784313724,58.0,-11.11,98.14,3.66
59.0,-116.0,144.49019607843138,-187.0,23.77,76.61,7.69
59.05,-4.0,193.49019607843138,-310.0,1.55,49.17,3.52
59.1,-84.0,46.490196078431374,-203.0,6.45,48.93,1.88
59.15,-4.0,46.490196078431374,-172.0,25.1,38.99,28.06
59.2,201.0,-286.01960784313724,301.5098039215686,-6.88,32.79,20.57
59.25,106.0,79.49019607843137,209.50980392156862,6.2,-12.8,11.47
59.3,233.0,-171.01960784313727,-233.0,-10.62,-36.88,33.17
59.35,-170.50980392156862,-187.01960784313727,-233.0,60.14,-68.28,63.48
59.4,-218.50980392156862,89.98039215686275,147.50980392156862,38.58,-112.48,28.41
59.45,-20.0,-269.01960784313724,27.0,29.06,-122.39,4.92
59.5,-52.0,209.49019607843138,-3.0,34.76,-109.51,8.28
59.55,11.0,-187.01960784313727,-64.0,41.48,-81.58,18.05
59.6,27.0,209.49019607843138,286.5098039215686,31.51,-74.93,7.48
59.65,122.0,30.49019607843137,-310.0,28.25,-57.85,-0.53
59.7,42.0,46.490196078431374,-172.0,-5.09,-42.83,-4.1
59.75,-4.0,111.49019607843137,-95.0,7.08,-21.1,-7.88
59.8,-36.0,209.49019607843138,270.5098039215686,13.62,6.51,-19.6
59.85,-100.0,275.4901960784314,55.509803921568626,7.15,47.91,-19.95
59.9,-116.0,-220.01960784313727,9.509803921568627,-0.47,76.37,-25.52
59.95,-84.0,-73.01960784313725,163.50980392156862,0.08,76.72,1.95
60.0,288.5098039215686,-236.01960784313727,193.50980392156862,25.28,56.94,8.53
60.05,-52.0,-51.509803921568626,239.50980392156862,-18.5,71.85,-7.35
60.1,-52.0,-18.50980392156863,239.50980392156862,-51.61,69.75,-23.31
60.15,-36.0,-133.50980392156862,-141.0,-64.49,61.14,-26.71
60.2,27.0,13.490196078431373,316.5098039215686,-58.68,57.92,-31.68
60.25,138.0,79.49019607843137,209.50980392156862,-95.32,66.36,-15.58
60.3,233.0,193.49019607843138,-98.49019607843137,30.77,4.58,19.55
60.35,-313.5098039215686,-40.01960784313726,39.509803921568626,13.31,2.24,12.87
60.4,-20.0,209.49019607843138,132.50980392156862,0.74,-18.47,15.53
60.45,201.0,209.49019607843138,316.5098039215686,-2.12,-26.31,33.06
60.5,-154.50980392156862,-220.01960784313727,132.50980392156862,47.29,-45.95,66.28
60.55,-282.5098039215686,106.98039215686275,70.50980392156863,45.02,-88.61,27.74
60.6,-68.0,-318.01960784313724,-187.0,12.43,-91.03,-4.8
60.65,-36.0,46.490196078431374,-80.0,31.86,-64.92,2.44
60.7,74.0,-269.01960784313724,316.5098039215686,35.92,-48.99,0.76
60.75,42.0,95.49019607843137,193.50980392156862,34.97,-38.0,-9.49
60.8,-4.0,13.490196078431373,255.50980392156862,175.39,-26.03,20.88
60.85,106.0,209.49019607843138,178.50980392156862,193.59,-50.71,28.06
60.9,-154.50980392156862,57.98039215686274,224.50980392156862,152.08,5.81,-12.5
60.95,240.50980392156862,215.0,-175.49019607843138,186.35,10.71,-58.98
61.0,27.0,-2.5098039215686274,178.50980392156862,68.4,44.87,-83.06
61.05,-84.0,-312.5098039215686,132.50980392156862,-63.09,77.73,-106.05
61.1,42.0,128.49019607843138,-52.490196078431374,-88.6,120.57,-110.01
61.15,-68.0,79.49019607843137,-237.49019607843138,-118.95,136.85,-73.33
61.2,-4.0,248.0,298.01960784313724,-133.12,133.59,-69.97
61.25,-68.0,313.0,159.01960784313727,-170.57,143.99,-79.8
61.3,-100.0,-247.50980392156862,55.509803921568626,-176.07,57.08,-56.32
61.35,233.0,46.490196078431374,163.50980392156862,-277.81,74.02,-50.09
61.4,186.0,95.49019607843137,-310.0,-217.75,71.22,-2.63
61.45,281.0,-187.01960784313727,-203.0,23.25,13.54,34.99
61.5,-234.50980392156862,-8.019607843137255,-49.0,223.27,-45.11,60.64
61.55,-202.50980392156862,-269.01960784313724,-33.0,199.54,-46.86,69.36
61.6,-250.50980392156862,46.490196078431374,301.5098039215686,156.49,-38.04,68.62
61.65,-298.5098039215686,-84.50980392156863,209.50980392156862,223.87,-54.24,44.51
61.7,313.0,128.49019607843138,-113.49019607843137,45.58,3.43,8.32
61.75,-282.5098039215686,-214.50980392156862,-283.4901960784314,35.88,-4.89,25.36
61.8,-202.50980392156862,111.49019607843137,159.01960784313727,53.77,-30.9,28.41
61.85,313.0,144.49019607843138,-67.49019607843137,73.37,-26.63,6.04
61.9,217.0,-182.50980392156862,-6.490196078431373,59.4,-14.87,-15.12
61.95,249.0,166.0,24.50980392156863,-1.28,3.32,-16.91
62.0,-234.50980392156862,-182.50980392156862,-144.49019607843138,-82.58,13.05,-17.33
62.05,-266.5098039215686,-182.50980392156862,9.509803921568627,-281.49,8.78,8.95
62.1,-186.50980392156862,313.0,39.509803921568626,322.98,9.1,-29.02
62.15,217.0,-247.50980392156862,224.50980392156862,157.26,7.17,-9.42
62.2,265.0,-89.01960784313725,-6.490196078431373,44.56,-8.99,-10.19
62.25,265.0,128.49019607843138,163.50980392156862,46.59,5.46,-9.21
62.3,297.0,275.4901960784314,-36.490196078431374,-77.26,25.44,-43.4
62.35,-313.5098039215686,62.490196078431374,209.50980392156862,-97.21,26.42,2.02
62.4,-298.5098039215686,-318.01960784313724,193.50980392156862,109.59,26.46,16.82
62.45,11.0,-122.01960784313725,-252.49019607843138,49.81,41.51,-20.72
62.5,58.0,-100.50980392156863,-21.49019607843137,-165.92,110.6,-15.79
62.55,-100.0,-100.50980392156863,86.50980392156863,-141.98,79.27,-14.21
62.6,233.0,62.490196078431374,58.0,168.71,-17.07,34.29
62.65,19.49019607843137,155.98039215686273,-79.0,178.3,-60.82,38.28
62.7,-154.50980392156862,-149.50980392156862,196.0,173.54,-72.2,46.54
62.75,-139.50980392156862,-198.50980392156862,193.50980392156862,-85.31,-16.16,-2.31
62.8,-313.5098039215686,-111.0,-129.49019607843138,16.98,23.17,35.51
62.85,233.0,-24.019607843137255,-55.98039215686274,2.88,-0.87,23.19
62.9,-313.5098039215686,297.0,86.50980392156863,-27.95,-19.0,32.89
62.95,-59.509803921568626,209.49019607843138,-67.49019607843137,-62.49,-33.87,28.86
63.0,-27.50980392156863,-51.509803921568626,101.50980392156863,5.36,-46.02,30.93
63.05,-11.509803921568627,226.49019607843138,178.50980392156862,2.67,-38.11,54.52
63.1,-107.50980392156863,-220.01960784313727,39.509803921568626,37.25,-57.53,64.14
63.15,-170.50980392156862,258.4901960784314,147.50980392156862,-46.46,-43.81,38.17
63.2,154.0,-84.50980392156863,-3.0,-53.81,-59.18,15.07
63.25,-298.5098039215686,-165.50980392156862,-310.0,-24.2,-17.32,11.75
63.3,-313.5098039215686,46.490196078431374,86.50980392156863,116.0,-7.59,13.57
63.35,313.0,-280.5098039215686,236.01960784313727,112.15,20.4,20.15
63.4,-250.50980392156862,-133.50980392156862,-221.49019607843138,121.39,12.56,59.0
63.45,-75.50980392156863,24.980392156862745,162.50980392156862,18.24,30.66,-0.35
63.5,297.0,-62.0,-83.49019607843137,-66.1,39.37,-106.65
63.55,313.0,183.0,-83.49019607843137,-186.74,92.33,-167.79
63.6,154.0,232.0,-52.490196078431374,-184.4,122.25,-136.85
63.65,-52.0,30.49019607843137,116.50980392156863,-136.87,115.29,-135.1
63.7,122.0,-35.509803921568626,255.50980392156862,-115.8,120.89,-148.75
63.75,-68.0,-67.50980392156863,-203.0,-109.5,112.21,-128.8
63.8,27.0,258.4901960784314,-18.0,-97.35,112.45,-121.38
63.85,11.0,291.4901960784314,58.0,-190.14,120.01,-106.44
63.9,122.0,275.4901960784314,58.0,-211.38,130.09,-73.29
63.95,42.0,-171.01960784313727,135.0,-152.27,106.26,-40.57
64.0,27.0,-187.01960784313727,-307.5098039215686,-45.69,56.0,-28.95
64.05,27.0,-171.01960784313727,-153.50980392156862,19.33,38.01,-23.59
64.1,-52.0,-236.01960784313727,-107.50980392156863,0.95,21.56,-32.2
64.15,-100.0,-318.01960784313724,15.490196078431373,35.18,3.71,-49.81
64.2,-116.0,-236.01960784313727,-15.509803921568627,65.25,-24.21,-47.6
64.25,-259.0,-302.01960784313724,-92.50980392156863,102.1,-59.91,-45.26
64.3,-290.0,275.4901960784314,-123.50980392156863,125.97,-79.97,-35.74
64.35,240.50980392156862,242.49019607843138,-92.50980392156863,117.68,-64.15,-7.0
64.4,129.50980392156862,291.4901960784314,-184.50980392156862,99.41,-66.56,0.2
64.45,129.50980392156862,-2.5098039215686274,-199.50980392156862,101.02,-52.11,-0.91
64.5,81.50980392156863,79.49019607843137,227.0,68.75,-58.02,-12.88
64.55,208.50980392156862,-51.509803921568626,181.0,116.28,-39.96,-36.61
64.6,113.50980392156863,-18.50980392156863,89.0,120.65,-37.93,-48.97
64.65,145.50980392156862,-18.50980392156863,-49.0,119.92,-25.93,-65.0
64.7,34.509803921568626,46.490196078431374,-95.0,104.24,-11.96,-88.9
64.75,-77.49019607843137,-100.50980392156863,-156.0,119.18,-9.3,-120.47
64.8,-188.49019607843138,62.490196078431374,-233.0,133.39,28.7,-162.37
64.85,-38.98039215686274,30.49019607843137,255.50980392156862,66.93,25.37,-112.53
64.9,311.01960784313724,-231.50980392156862,209.50980392156862,82.92,-33.91,-83.41
64.95,2.5098039215686274,-280.5098039215686,101.50980392156863,-93.01,21.63,-75.01
65.0,295.01960784313724,101.0,116.50980392156863,-93.99,18.44,-77.42
65.05,-220.49019607843138,281.0,193.50980392156862,-76.04,-2.2,-74.34
65.1,-29.49019607843137,-280.5098039215686,147.50980392156862,-16.96,-9.93,-70.42
65.15,-45.490196078431374,-214.50980392156862,132.50980392156862,12.78,-22.6,-55.41
65.2,-61.490196078431374,-214.50980392156862,39.509803921568626,25.84,-20.4,-23.63
65.25,-140.49019607843138,-198.50980392156862,70.50980392156863,34.55,-17.14,5.48
65.3,-140.49019607843138,-247.50980392156862,-6.490196078431373,22.06,-9.16,31.03
65.35,-124.49019607843137,297.0,9.509803921568627,15.83,-3.67,44.58
65.4,-188.49019607843138,297.0,24.50980392156863,26.61,-14.76,47.48
65.45,-93.49019607843137,313.0,24.50980392156863,89.43,-24.35,-0.28
65.5,295.01960784313724,-263.5098039215686,-6.490196078431373,58.98,21.91,28.37
65.55,120.01960784313725,-247.50980392156862,24.50980392156863,119.01,10.11,64.35
65.6,-299.4901960784314,-214.50980392156862,116.50980392156863,64.23,36.71,81.96
65.65,152.01960784313727,281.0,193.50980392156862,63.67,58.8,90.22
65.7,152.01960784313727,-263.5098039215686,193.50980392156862,7.22,69.05,99.28
65.75,200.01960784313727,248.0,-233.0,-14.58,43.05,104.15
65.8,-252.49019607843138,313.0,-233.0,-3.24,28.31,98.51
65.85,-283.4901960784314,313.0,-203.0,27.2,-3.18,78.0
65.9,-172.49019607843138,-280.5098039215686,-187.0,32.17,-25.4,54.2
65.95,-77.49019607843137,281.0,-172.0,58.0,-44.06,13.53
66.0,-156.49019607843138,264.0,-279.0,24.51,-48.99,-9.8
66.05,-156.49019607843138,133.0,270.5098039215686,17.54,-60.79,-43.16
66.1,-267.4901960784314,166.0,193.50980392156862,-2.57,-50.01,-86.98
66.15,-38.98039215686274,183.0,39.509803921568626,-60.95,-26.56,-64.05
66.2,279.01960784313724,166.0,-37.490196078431374,19.85,-48.08,-33.88
66.25,-45.490196078431374,232.0,-113.49019607843137,-25.85,-9.62,-53.59
66.3,-283.4901960784314,52.0,9.509803921568627,-72.12,12.56,-72.49
66.35,-299.4901960784314,166.0,39.509803921568626,-70.58,14.07,-68.15
66.4,-124.49019607843137,232.0,70.50980392156863,-38.87,4.79,-58.03
66.45,-77.49019607843137,297.0,101.50980392156863,-20.49,0.84,-47.95
66.5,-156.49019607843138,313.0,116.50980392156863,-6.04,-8.39,-28.46
66.55,-156.49019607843138,-312.5098039215686,86.50980392156863,10.23,-10.0,-2.24
66.6,-172.49019607843138,-312.5098039215686,70.50980392156863,20.94,-4.12,20.6
66.65,-188.49019607843138,-312.5098039215686,39.509803921568626,11.66,-1.57,43.53
66.7,-156.49019607843138,248.0,101.50980392156863,20.87,-18.19,57.0
66.75,-77.49019607843137,264.0,116.50980392156863,46.73,-40.0,29.25
66.8,-188.49019607843138,281.0,116.50980392156863,42.25,-20.71,0.48
66.85,104.01960784313725,313.0,70.50980392156863,67.14,-8.11,41.92
66.9,-252.49019607843138,-214.50980392156862,86.50980392156863,98.08,-5.66,97.67
66.95,-140.49019607843138,-312.5098039215686,209.50980392156862,45.75,17.78,81.57
67.0,263.01960784313724,199.0,209.50980392156862,-0.09,47.35,53.22
67.05,72.01960784313725,215.0,301.5098039215686,-1.45,48.12,42.23
67.1,216.01960784313727,297.0,316.5098039215686,-11.57,39.51,48.67
67.15,-283.4901960784314,248.0,-249.0,18.8,2.97,52.63
67.2,-156.49019607843138,264.0,-249.0,28.64,-11.75,37.19
67.25,-220.49019607843138,264.0,-295.0,26.64,-8.04,13.95
67.3,-252.49019607843138,232.0,-249.0,2.7,-7.45,-8.96
67.35,-204.49019607843138,166.0,-264.0,-34.91,-15.39,-29.96
67.4,-204.49019607843138,183.0,-264.0,-18.11,-45.74,-58.98
67.45,-172.49019607843138,281.0,316.5098039215686,25.17,-56.52,-78.19
67.5,-220.49019607843138,-312.5098039215686,255.50980392156862,49.74,-42.2,-75.5
67.55,-283.4901960784314,-296.5098039215686,147.50980392156862,22.55,-24.49,-72.35
67.6,-315.4901960784314,232.0,116.50980392156863,-64.8,5.84,-97.27
67.65,41.01960784313726,117.0,178.50980392156862,-206.55,50.61,-57.09
67.7,88.01960784313725,183.0,147.50980392156862,-78.45,9.13,-6.69
67.75,34.509803921568626,-214.50980392156862,101.50980392156863,15.72,10.92,-4.24
67.8,-61.490196078431374,-165.50980392156862,116.50980392156863,-11.25,41.93,-20.13
67.85,-299.4901960784314,248.0,209.50980392156862,-55.21,36.78,-11.27
67.9,-299.4901960784314,248.0,193.50980392156862,-37.43,-3.25,39.61
67.95,-140.49019607843138,248.0,132.50980392156862,8.86,-10.49,43.81
68.0,-108.49019607843137,-312.5098039215686,55.509803921568626,42.15,-12.1,33.52
68.05,-61.490196078431374,264.0,70.50980392156863,70.71,-21.03,24.24
68.1,-93.49019607843137,248.0,39.509803921568626,88.24,-21.87,20.74
68.15,-236.49019607843138,232.0,-21.49019607843137,53.42,11.69,29.46
68.2,216.01960784313727,166.0,-6.490196078431373,34.94,21.1,43.95
68.25,-299.4901960784314,133.0,101.50980392156863,3.23,20.19,52.66
68.3,-188.49019607843138,150.0,193.50980392156862,-1.63,2.2,40.31
68.35,-77.49019607843137,183.0,255.50980392156862,19.78,-20.47,13.43
68.4,-61.490196078431374,248.0,255.50980392156862,72.32,-35.1,2.86
68.45,-93.49019607843137,-312.5098039215686,193.50980392156862,72.0,-34.92,4.99
68.5,-140.49019607843138,215.0,193.50980392156862,55.48,-40.49,-4.2
68.55,-252.49019607843138,199.0,163.50980392156862,-12.02,-2.44,2.44
68.6,88.01960784313725,150.0,55.509803921568626,7.64,-2.93,40.48
68.65,-252.49019607843138,281.0,86.50980392156863,14.5,-3.91,64.04
68.7,-156.49019607843138,183.0,147.50980392156862,4.42,-6.43,43.74
68.75,-188.49019607843138,150.0,116.50980392156863,-11.92,7.59,17.14
68.8,-299.4901960784314,183.0,147.50980392156862,2.91,10.25,8.7
68.85,-236.49019607843138,232.0,193.50980392156862,-10.55,6.19,7.65
68.9,-220.49019607843138,183.0,209.50980392156862,-15.49,-7.27,-2.63
68.95,-156.49019607843138,183.0,255.50980392156862,-9.54,-11.23,-32.34
69.0,-252.49019607843138,215.0,239.50980392156862,-5.86,-2.79,-63.67
69.05,247.01960784313727,281.0,224.50980392156862,-9.36,6.51,-61.95
69.1,279.01960784313724,-312.5098039215686,255.50980392156862,-6.53,2.48,-33.18
69.15,-220.49019607843138,313.0,255.50980392156862,-29.21,13.26,-11.73
69.2,-252.49019607843138,248.0,255.50980392156862,-47.76,11.2,-21.04
69.25,-252.49019607843138,264.0,301.5098039215686,-70.02,20.02,-37.17
69.3,200.01960784313727,281.0,-280.0,-57.21,1.43,-23.91
69.35,-236.49019607843138,-263.5098039215686,255.50980392156862,15.13,-32.37,15.46
69.4,-61.490196078431374,-231.50980392156862,193.50980392156862,31.05,-21.1,17.56
69.45,-188.49019607843138,281.0,116.50980392156863,-17.94,9.2,1.11
69.5,-283.4901960784314,166.0,132.50980392156862,-40.72,6.23,-3.43
69.55,-236.49019607843138,183.0,132.50980392156862,-19.3,-3.81,4.99
69.6,-220.49019607843138,281.0,116.50980392156863,25.98,-12.42,6.85
69.65,-220.49019607843138,297.0,116.50980392156863,21.81,-6.12,0.51
69.7,-252.49019607843138,215.0,116.50980392156863,11.91,-0.55,-0.35
69.75,-236.49019607843138,232.0,116.50980392156863,8.37,3.32,3.56
69.8,-236.49019607843138,248.0,163.50980392156862,11.0,5.56,6.18
69.85,-252.49019607843138,264.0,163.50980392156862,5.47,7.14,8.49
69.9,-220.49019607843138,264.0,193.50980392156862,6.73,3.92,9.3
69.95,-236.49019607843138,248.0,239.50980392156862,10.19,0.21,10.14
70.0,-220.49019607843138,281.0,224.50980392156862,16.63,-6.08,8.98
70.05,-236.49019607843138,281.0,239.50980392156862,8.41,-8.99,10.21
70.1,-283.4901960784314,248.0,239.50980392156862,20.52,-17.07,13.01
70.15,-252.49019607843138,281.0,209.50980392156862,25.56,-20.5,13.92
70.2,-236.49019607843138,248.0,239.50980392156862,19.47,-18.86,8.6
70.25,-220.49019607843138,215.0,209.50980392156862,15.93,-14.27,3.31
70.3,-220.49019607843138,232.0,193.50980392156862,6.38,-7.27,2.96
70.35,-283.4901960784314,264.0,163.50980392156862,6.66,-2.27,11.75
70.4,-299.4901960784314,297.0,178.50980392156862,10.58,-4.26,12.87
70.45,-252.49019607843138,281.0,193.50980392156862,14.81,-4.82,9.44
70.5,-220.49019607843138,215.0,224.50980392156862,20.1,-7.94,3.63
70.55,-204.49019607843138,248.0,224.50980392156862,18.98,-8.5,0.23
70.6,-236.49019607843138,281.0,224.50980392156862,13.69,-9.09,-0.39
70.65,-267.4901960784314,264.0,239.50980392156862,18.84,-13.82,4.54
70.7,-267.4901960784314,313.0,209.50980392156862,28.81,-12.84,14.44
70.75,-283.4901960784314,-296.5098039215686,224.50980392156862,20.2,-8.18,19.52
70.8,-267.4901960784314,264.0,224.50980392156862,15.16,-4.23,20.5
70.85,-283.4901960784314,297.0,224.50980392156862,10.19,0.28,20.88
70.9,-283.4901960784314,264.0,224.50980392156862,4.42,1.4,21.02
70.95,-267.4901960784314,281.0,224.50980392156862,2.74,0.28,19.52
71.0,-299.4901960784314,248.0,255.50980392156862,5.22,-3.81,15.74
71.05,-283.4901960784314,264.0,270.5098039215686,5.82,-5.73,8.98
71.1,-283.4901960784314,232.0,255.50980392156862,2.21,-6.71,0.44
71.15,-267.4901960784314,248.0,239.50980392156862,5.54,-9.41,-5.43
71.2,-236.49019607843138,232.0,286.5098039215686,-0.44,-10.6,-13.06
71.25,-236.49019607843138,248.0,270.5098039215686,8.44,-17.28,-20.58
71.3,-204.49019607843138,281.0,286.5098039215686,14.32,-22.01,-31.61
71.35,-204.49019607843138,281.0,286.5098039215686,20.97,-23.23,-46.27
71.4,-252.49019607843138,-312.5098039215686,301.5098039215686,16.84,-18.47,-45.43
71.45,311.01960784313724,-296.5098039215686,270.5098039215686,20.87,-15.95,-31.68
71.5,-299.4901960784314,-263.5098039215686,255.50980392156862,22.37,-12.07,-13.93
71.55,-299.4901960784314,-280.5098039215686,239.50980392156862,24.96,-5.0,0.9
71.6,-283.4901960784314,-280.5098039215686,270.5098039215686,23.0,-0.06,8.18
71.65,-283.4901960784314,-312.5098039215686,224.50980392156862,14.57,11.72,11.47
71.7,-299.4901960784314,313.0,270.5098039215686,15.09,19.49,15.28
71.75,-299.4901960784314,-312.5098039215686,270.5098039215686,2.67,29.08,15.18
71.8,311.01960784313724,264.0,316.5098039215686,-9.33,37.66,15.18
71.85,295.01960784313724,281.0,316.5098039215686,-22.1,33.04,8.88
71.9,247.01960784313727,281.0,-310.0,-40.23,30.73,3.1
71.95,104.01960784313725,297.0,-310.0,-8.0,-8.5,17.56
72.0,-220.49019607843138,313.0,316.5098039215686,52.4,-39.93,39.4
72.05,-29.49019607843137,281.0,255.50980392156862,67.49,-40.07,30.33
72.1,-108.49019607843137,117.0,209.50980392156862,21.04,-20.05,16.79
72.15,-252.49019607843138,-13.0,162.50980392156862,14.92,-16.69,9.16
72.2,-236.49019607843138,35.0,132.50980392156862,22.83,-17.18,1.98
72.25,-188.49019607843138,68.0,147.50980392156862,25.98,-14.73,-6.72
72.3,-220.49019607843138,101.0,163.50980392156862,30.98,-15.85,-14.32
72.35,-172.49019607843138,150.0,193.50980392156862,31.3,-13.71,-14.74
72.4,-124.49019607843137,166.0,163.50980392156862,36.65,-16.62,-13.51
72.45,-140.49019607843138,232.0,178.50980392156862,27.52,-14.59,-14.21
72.5,-236.49019607843138,248.0,163.50980392156862,21.81,-23.58,-11.55
72.55,-315.4901960784314,313.0,147.50980392156862,61.92,-13.15,-13.06
72.6,72.01960784313725,-231.50980392156862,-6.490196078431373,86.56,4.02,37.09
72.65,279.01960784313724,-214.50980392156862,-36.490196078431374,137.49,32.2,54.48
72.7,72.01960784313725,-133.50980392156862,147.50980392156862,77.08,56.59,74.26
72.75,120.01960784313725,313.0,163.50980392156862,67.45,68.42,95.92
72.8,279.01960784313724,-263.5098039215686,286.5098039215686,66.61,70.42,120.25
72.85,311.01960784313724,-198.50980392156862,301.5098039215686,43.65,72.17,125.67
72.9,311.01960784313724,-214.50980392156862,-295.0,33.22,64.54,132.67
72.95,-283.4901960784314,-165.50980392156862,286.5098039215686,48.06,47.28,147.2
73.0,-156.49019607843138,-100.50980392156863,209.50980392156862,52.51,53.97,132.15
73.05,-156.49019607843138,-165.50980392156862,147.50980392156862,61.99,35.0,119.9
73.1,-45.490196078431374,-149.50980392156862,9.509803921568627,49.32,38.53,89.69
73.15,-140.49019607843138,-198.50980392156862,-52.490196078431374,29.83,31.6,72.12
73.2,-93.49019607843137,-214.50980392156862,-144.49019607843138,46.63,5.56,99.35
73.25,272.5098039215686,-198.50980392156862,-283.4901960784314,83.66,14.35,94.84
73.3,240.50980392156862,-247.50980392156862,-221.49019607843138,50.16,25.97,85.63
73.35,304.5098039215686,281.0,-206.49019607843138,27.55,37.94,80.17
73.4,-179.0,215.0,-190.49019607843138,44.7,25.93,73.45
73.45,-36.0,313.0,-190.49019607843138,40.99,20.82,66.8
73.5,-36.0,297.0,-129.49019607843138,43.69,5.46,71.95
73.55,27.0,297.0,-160.49019607843138,36.16,0.94,81.15
73.6,-36.0,281.0,-190.49019607843138,57.16,-11.79,88.92
73.65,-20.0,297.0,-206.49019607843138,79.49,-6.4,80.87
73.7,-131.0,166.0,-221.49019607843138,98.01,-13.33,85.14
73.75,-116.0,150.0,-298.4901960784314,87.16,-25.19,74.22
73.8,-179.0,117.0,313.01960784313724,14.92,-22.43,102.68
73.85,256.5098039215686,-13.0,298.01960784313724,69.76,-27.85,102.92
73.9,-275.0,199.0,252.01960784313727,23.18,-13.5,66.21
73.95,224.50980392156862,52.0,144.01960784313727,-202.98,36.19,55.57
74.0,-306.0,-209.0,113.01960784313725,-43.73,-0.94,34.85
74.05,-68.0,297.0,221.01960784313727,-81.5,3.5,66.17
74.1,-84.0,3.0,-313.4901960784314,106.2,-29.15,57.32
74.15,90.0,-51.509803921568626,282.01960784313724,249.56,-29.04,95.19
74.2,-163.0,-214.50980392156862,282.01960784313724,284.03,-42.55,63.83
74.25,-195.0,-307.0,-206.49019607843138,87.82,4.62,6.85
74.3,224.50980392156862,-89.49019607843137,-298.4901960784314,-123.67,30.62,-18.97
74.35,-116.0,-7.490196078431373,-267.4901960784314,-268.22,25.06,-32.06
74.4,90.0,25.50980392156863,-160.49019607843138,-179.74,41.51,-39.66
74.45,170.0,35.0,-252.49019607843138,103.54,-17.7,-25.73
74.5,170.0,-13.0,236.01960784313727,79.56,-31.04,-34.44
74.55,11.0,303.5098039215686,313.01960784313724,-80.97,-12.94,8.18
74.6,-131.0,107.50980392156863,-221.49019607843138,-26.34,2.34,12.9
74.65,-275.0,68.0,-40.98039215686274,208.61,-39.61,3.63
74.7,320.5098039215686,-258.0,-67.49019607843137,40.43,-12.94,10.07
74.75,-227.0,107.50980392156863,-298.4901960784314,37.74,-1.74,7.44
74.8,-68.0,-274.0,98.01960784313725,-21.09,10.95,-15.09
74.85,27.0,286.5098039215686,236.01960784313727,-161.44,16.1,-26.6
74.9,-52.0,139.50980392156862,267.01960784313724,-28.02,10.01,-46.62
74.95,-84.0,52.0,132.50980392156862,24.51,-11.72,-4.9
75.0,74.0,-274.0,-98.49019607843137,9.46,-20.19,0.41
75.05,-68.0,205.50980392156862,267.01960784313724,37.6,16.55,21.3
75.1,-306.0,-290.0,298.01960784313724,103.54,-18.89,11.64
75.15,-52.0,-241.0,282.01960784313724,65.63,1.29,16.12
75.2,-211.0,-290.0,190.01960784313727,6.8,18.06,-14.49
75.25,-211.0,254.50980392156862,-313.4901960784314,-97.77,15.29,1.95
75.3,-116.0,-72.49019607843137,-6.490196078431373,8.34,-16.44,-1.51
75.35,42.0,-94.0,-283.4901960784314,-22.63,-22.01,2.4
75.4,-20.0,286.5098039215686,236.01960784313727,-108.52,42.8,48.01
75.45,-243.0,254.50980392156862,21.019607843137255,125.13,-22.11,7.09
75.5,106.0,35.0,206.01960784313727,1.3,20.26,6.57
75.55,-163.0,74.50980392156863,-67.49019607843137,28.67,11.48,-8.26
75.6,-195.0,-307.0,175.01960784313727,-31.55,24.85,2.33
75.65,-147.0,156.50980392156862,-283.4901960784314,59.86,-10.42,-11.1
75.7,-68.0,-209.0,-313.4901960784314,-48.84,14.8,-6.02
75.75,-131.0,156.50980392156862,-267.4901960784314,4.87,-6.01,-12.11
75.8,-36.0,-143.0,-298.4901960784314,-72.85,13.02,19.73
75.85,-20.0,303.5098039215686,282.01960784313724,2.18,7.45,37.72
75.9,-84.0,-78.0,175.01960784313727,173.47,-44.48,-14.21
75.95,-116.0,-290.0,-279.0,-71.38,23.66,7.83
76.0,272.5098039215686,-236.49019607843138,-283.4901960784314,65.35,-11.79,0.79
76.05,-36.0,3.0,190.01960784313727,0.6,-5.03,4.57
76.1,-36.0,237.50980392156862,-283.4901960784314,0.32,-4.16,-1.58
76.15,-100.0,221.50980392156862,-283.4901960784314,-3.52,-0.31,-5.01
76.2,-116.0,237.50980392156862,298.01960784313724,-8.17,1.19,-8.61
76.25,-68.0,188.50980392156862,-298.4901960784314,7.99,-4.16,-7.84
76.3,-52.0,-307.0,298.01960784313724,-9.15,1.61,0.06
76.35,-84.0,254.50980392156862,-313.4901960784314,8.48,-3.0,-2.49
76.4,-68.0,286.5098039215686,-313.4901960784314,-8.52,1.47,-0.74
76.45,-68.0,205.50980392156862,-298.4901960784314,-3.66,0.52,-2.8
76.5,-68.0,270.5098039215686,-313.4901960784314,-0.72,-0.69,-1.23
76.55,-84.0,286.5098039215686,-313.4901960784314,-7.23,-0.52,-0.53
76.6,-84.0,237.50980392156862,-298.4901960784314,5.99,-0.87,1.25
76.65,-100.0,303.5098039215686,-313.4901960784314,-14.05,3.53,1.28
76.7,-84.0,221.50980392156862,-313.4901960784314,-2.78,1.36,-0.07
76.75,-68.0,286.5098039215686,-313.4901960784314,-8.73,2.59,-1.44
76.8,-84.0,270.5098039215686,313.01960784313724,-8.24,1.82,-4.1
76.85,-52.0,286.5098039215686,-313.4901960784314,1.76,1.08,-5.08
76.9,-100.0,303.5098039215686,-298.4901960784314,-15.0,4.51,-2.28
76.95,-68.0,270.5098039215686,-298.4901960784314,-5.13,2.69,0.76
77.0,-52.0,-274.0,-313.4901960784314,-6.67,3.6,2.65
77.05,-36.0,319.5098039215686,-313.4901960784314,-13.49,7.0,1.32
77.1,-68.0,286.5098039215686,313.01960784313724,-8.7,6.05,0.72
77.15,-52.0,-290.0,313.01960784313724,-9.71,6.82,2.75
77.2,-68.0,-307.0,-313.4901960784314,-2.75,9.66,6.53
77.25,-52.0,-274.0,282.01960784313724,3.96,8.36,9.16
77.3,-52.0,-209.0,267.01960784313724,-18.22,13.79,10.7
77.35,-52.0,303.5098039215686,313.01960784313724,0.81,9.59,9.33
77.4,-52.0,-225.0,282.01960784313724,-15.17,11.16,10.07
77.45,-36.0,-307.0,-313.4901960784314,-6.25,5.42,7.83
77.5,-20.0,-307.0,282.01960784313724,-2.82,5.74,4.85
77.55,-36.0,-258.0,282.01960784313724,-6.67,5.7,4.71
77.6,-4.0,-258.0,282.01960784313724,1.83,3.74,4.26
77.65,-4.0,-209.0,267.01960784313724,-8.14,4.44,3.87
77.7,-20.0,-258.0,313.01960784313724,-2.22,5.67,4.4
77.75,-20.0,-241.0,282.01960784313724,-11.6,7.0,4.82
77.8,11.0,-274.0,-313.4901960784314,-3.17,1.68,2.89
77.85,11.0,-209.0,298.01960784313724,-4.29,3.99,1.74
77.9,-20.0,-225.0,298.01960784313724,1.41,1.5,-0.35
77.95,-4.0,-209.0,-313.4901960784314,-5.34,-1.67,-1.93
78.0,11.0,-192.0,298.01960784313724,1.65,-5.21,-0.42
78.05,42.0,-192.0,267.01960784313724,2.49,0.45,1.81
78.1,-20.0,-225.0,236.01960784313727,-5.51,0.63,0.06
78.15,-4.0,-225.0,282.01960784313724,-5.2,-3.6,6.15
78.2,27.0,-258.0,298.01960784313724,4.17,-1.18,5.76
78.25,-4.0,-209.0,282.01960784313724,-1.0,5.25,1.07
78.3,27.0,-225.0,298.01960784313724,-8.24,6.96,-3.89
78.35,11.0,-192.0,313.01960784313724,1.37,0.59,-0.53
78.4,11.0,-160.0,236.01960784313727,7.36,0.84,5.13
78.45,-20.0,-225.0,298.01960784313724,-4.81,6.61,2.44
78.5,-4.0,-258.0,-298.4901960784314,-13.95,5.0,-3.82
78.55,27.0,-241.0,313.01960784313724,-5.93,0.52,2.96
78.6,42.0,-143.0,236.01960784313727,4.31,1.85,5.24
78.65,11.0,-192.0,267.01960784313724,-2.54,6.65,2.61
78.7,11.0,-209.0,-313.4901960784314,-10.73,6.12,-11.48
78.75,27.0,-176.0,-313.4901960784314,-2.57,-0.62,-1.26
78.8,27.0,-143.0,236.01960784313727,15.13,-6.47,8.49
78.85,58.0,-209.0,236.01960784313727,-2.12,4.41,7.16
78.9,11.0,-258.0,298.01960784313724,-10.41,5.7,-4.45
78.95,58.0,-225.0,-313.4901960784314,-7.54,0.66,1.53
79.0,27.0,-127.0,267.01960784313724,12.5,-7.62,12.87
79.05,74.0,-160.0,252.01960784313727,7.18,-0.48,11.71
79.1,42.0,-241.0,-298.4901960784314,-0.61,7.52,1.6
79.15,27.0,-192.0,-298.4901960784314,-7.33,6.12,-4.45
79.2,27.0,-160.0,298.01960784313724,7.15,-2.09,4.26
79.25,11.0,-78.0,267.01960784313724,7.11,-3.04,5.34
79.3,58.0,-241.0,313.01960784313724,-9.15,3.43,0.34
79.35,42.0,-258.0,298.01960784313724,-3.34,-1.18,3.7
79.4,42.0,-160.0,267.01960784313724,6.31,-0.69,12.48
79.45,58.0,-160.0,221.01960784313727,1.09,5.91,11.5
79.5,27.0,-225.0,313.01960784313724,-1.49,6.86,4.78
79.55,42.0,-176.0,313.01960784313724,-8.0,6.61,2.02
79.6,27.0,-143.0,267.01960784313724,5.99,0.91,7.37
79.65,27.0,-176.0,282.01960784313724,1.97,1.36,5.13
79.7,58.0,-209.0,282.01960784313724,-7.33,4.55,-1.68
79.75,27.0,-192.0,282.01960784313724,-3.87,-1.08,1.53
79.8,74.0,-176.0,267.01960784313724,5.75,-0.62,4.96
79.85,58.0,-209.0,267.01960784313724,0.71,5.42,-2.63
79.9,58.0,-225.0,313.01960784313724,-12.44,7.24,-19.71
79.95,42.0,-143.0,-313.4901960784314,-6.32,1.68,-15.16
80.0,58.0,-78.0,252.01960784313727,13.76,-6.64,-7.32
80.05,74.0,-143.0,282.01960784313724,4.1,-0.94,-6.23
80.1,74.0,-290.0,-283.4901960784314,-8.0,4.23,-15.47
80.15,58.0,-209.0,298.01960784313724,-5.83,-3.11,-13.97
80.2,58.0,-127.0,252.01960784313727,11.49,-11.23,-4.06
80.25,42.0,-127.0,252.01960784313727,13.62,-8.64,-1.65
80.3,58.0,-209.0,267.01960784313724,3.93,-0.9,-10.22
80.35,74.0,-241.0,313.01960784313724,-5.44,-0.17,-19.46
80.4,42.0,-160.0,282.01960784313724,16.67,-10.28,-6.44
80.45,42.0,-111.0,236.01960784313727,17.68,-8.53,0.09
80.5,27.0,-192.0,267.01960784313724,6.38,-4.65,5.27
80.55,27.0,-274.0,313.01960784313724,0.99,-5.77,-2.56
80.6,58.0,-225.0,282.01960784313724,7.04,-4.37,7.62
80.65,42.0,-176.0,252.01960784313727,2.42,1.68,14.06
80.7,11.0,-274.0,313.01960784313724,-5.9,9.83,8.18
80.75,42.0,-307.0,-313.4901960784314,-16.64,14.21,3.56
80.8,42.0,-209.0,298.01960784313724,-8.8,10.81,11.4
80.85,42.0,-143.0,252.01960784313727,3.09,8.99,18.57
80.9,42.0,-192.0,252.01960784313727,-7.09,10.64,5.59
80.95,58.0,-274.0,313.01960784313724,-14.4,8.29,-2.0
81.0,42.0,-160.0,267.01960784313724,3.33,-0.55,1.56
81.05,74.0,-127.0,252.01960784313727,6.38,-3.21,5.94
81.1,90.0,-225.0,298.01960784313724,-0.4,1.36,-0.07
81.15,58.0,-209.0,282.01960784313724,-6.7,-1.6,-9.7
81.2,42.0,-127.0,298.01960784313724,10.72,-6.96,-0.32
81.25,58.0,-160.0,267.01960784313724,11.73,-6.05,3.52
81.3,42.0,-258.0,298.01960784313724,-4.46,-2.09,-4.17
81.35,58.0,-258.0,-313.4901960784314,-2.15,-3.56,-4.45
81.4,58.0,-143.0,298.01960784313724,5.36,-6.15,9.33
81.45,58.0,-209.0,252.01960784313727,0.46,1.29,17.63
81.5,42.0,-274.0,282.01960784313724,1.83,7.77,10.1
81.55,58.0,-176.0,-298.4901960784314,-11.53,12.74,4.08
81.6,42.0,-160.0,-313.4901960784314,16.81,0.66,10.77
81.65,42.0,-143.0,252.01960784313727,9.46,0.8,8.35
81.7,42.0,-274.0,313.01960784313724,-6.18,8.54,-4.27
81.75,42.0,-290.0,267.01960784313724,-12.58,6.37,-11.8
81.8,58.0,-111.0,282.01960784313724,-3.24,-0.41,-5.95
81.85,74.0,-111.0,282.01960784313724,0.08,-2.86,-4.2
81.9,90.0,-307.0,298.01960784313724,2.67,-1.53,-3.89
81.95,74.0,-241.0,267.01960784313724,5.57,-0.17,-7.46
82.0,58.0,-176.0,298.01960784313724,-7.47,1.85,-14.7
82.05,58.0,-176.0,282.01960784313724,9.95,-8.15,-1.96
82.1,74.0,-176.0,267.01960784313724,12.4,-4.89,9.33
82.15,74.0,-290.0,313.01960784313724,-9.05,4.27,1.95
82.2,74.0,-290.0,298.01960784313724,-2.12,-0.55,3.94
82.25,42.0,-111.0,298.01960784313724,7.36,-5.91,17.17
82.3,42.0,-225.0,298.01960784313724,9.39,-2.86,20.43
82.35,42.0,303.5098039215686,298.01960784313724,-0.68,7.84,9.61
82.4,42.0,-274.0,313.01960784313724,-0.93,9.1,-0.25
82.45,58.0,-143.0,267.01960784313724,7.67,4.27,4.85
82.5,74.0,-209.0,236.01960784313727,9.77,-0.03,13.95
82.55,74.0,-307.0,-298.4901960784314,4.63,2.1,12.52
82.6,58.0,-225.0,313.01960784313724,-4.99,5.81,-3.57
82.65,27.0,-225.0,282.01960784313724,3.89,-1.04,1.81
82.7,42.0,-192.0,298.01960784313724,2.42,0.42,4.15
82.75,58.0,-307.0,313.01960784313724,3.16,5.91,1.49
82.8,58.0,-274.0,313.01960784313724,-4.32,8.61,-10.78
82.85,74.0,-209.0,313.01960784313724,-6.88,5.56,-11.27
82.9,58.0,-225.0,298.01960784313724,2.04,3.43,-1.58
82.95,106.0,-258.0,267.01960784313724,8.2,1.12,4.15
83.0,122.0,-274.0,298.01960784313724,-2.78,2.1,-7.67
83.05,74.0,-225.0,-313.4901960784314,-12.62,-1.95,-4.45
83.1,106.0,-225.0,313.01960784313724,1.09,-7.06,5.38
83.15,138.0,-225.0,267.01960784313724,11.52,1.33,7.69
83.2,74.0,-274.0,267.01960784313724,-7.68,14.49,-1.72
83.25,11.0,303.5098039215686,236.01960784313727,3.16,9.66,-12.18
83.3,27.0,-143.0,-313.4901960784314,32.7,0.52,-5.22
83.35,42.0,-111.0,236.01960784313727,11.52,-4.72,8.21
83.4,106.0,-307.0,-313.4901960784314,29.48,-14.52,9.72
83.45,138.0,286.5098039215686,-298.4901960784314,-2.22,-14.87,-12.01
83.5,170.0,270.5098039215686,236.01960784313727,-5.23,-5.49,-9.28
83.55,90.0,-94.0,221.01960784313727,-44.68,6.12,-18.87
83.6,154.0,-307.0,159.01960784313727,17.86,-16.09,-12.18
83.65,42.0,-274.0,-221.49019607843138,-17.83,-9.02,-29.09
83.7,-20.0,270.5098039215686,252.01960784313727,-42.86,-24.53,-8.19
83.75,-20.0,-160.0,-283.4901960784314,-40.44,-26.91,-20.76
83.8,-68.0,-225.0,236.01960784313727,-22.45,3.95,-16.24
83.85,74.0,-45.0,236.01960784313727,112.53,-2.16,-37.35
83.9,281.0,215.0,298.01960784313724,40.96,0.87,-8.05
83.95,281.0,319.5098039215686,221.01960784313727,46.98,-25.02,14.9
84.0,186.0,-94.0,282.01960784313724,5.82,-26.35,-10.92
84.05,-68.0,205.50980392156862,252.01960784313727,-42.51,-9.76,-33.92
84.1,58.0,-143.0,190.01960784313727,-87.87,3.85,-57.82
84.15,-4.0,-307.0,-283.4901960784314,-203.89,60.16,-102.55
84.2,320.5098039215686,-258.0,-40.98039215686274,325.82,67.34,-147.46
84.25,11.0,286.5098039215686,-160.49019607843138,218.75,81.3,-124.29
84.3,-4.0,117.0,-113.49019607843137,-326.32,56.7,-38.68
84.35,74.0,-182.50980392156862,101.50980392156863,-240.11,5.98,55.11
84.4,186.0,-133.0392156862745,-98.49019607843137,-73.86,-17.98,59.28
84.45,-20.0,-40.01960784313726,239.50980392156862,137.14,-24.7,46.85
84.5,-123.50980392156863,156.50980392156862,9.509803921568627,187.85,-112.9,51.86
84.55,313.0,-231.50980392156862,-52.490196078431374,-70.82,6.26,30.26
84.6,-68.0,107.50980392156863,282.01960784313724,16.74,-2.62,-21.77
84.65,58.0,166.0,221.01960784313727,-133.23,43.26,-63.42
84.7,281.0,123.50980392156863,21.019607843137255,-77.16,24.11,-52.92
84.75,122.0,-29.0,-298.4901960784314,-94.97,34.16,-29.09
84.8,-84.0,-209.0,252.01960784313727,18.24,2.03,7.37
84.85,-20.0,232.0,267.01960784313724,-37.96,28.14,40.13
84.9,-131.0,232.0,190.01960784313727,20.31,37.38,68.2
84.95,-259.0,-149.50980392156862,-252.49019607843138,-86.54,45.29,82.59
85.0,42.0,84.0,-221.49019607843138,-259.47,13.26,93.68
85.05,-43.509803921568626,117.0,86.50980392156863,-130.99,-69.01,167.6
85.1,99.49019607843137,30.49019607843137,162.50980392156862,-75.65,-87.32,210.02
85.15,-43.509803921568626,62.490196078431374,-67.49019607843137,-68.16,-76.26,215.17
85.2,-313.5098039215686,30.49019607843137,-98.49019607843137,-20.04,-87.81,223.36
85.25,-313.5098039215686,62.490196078431374,-236.49019607843138,-20.74,-106.36,219.61
85.3,265.0,-214.50980392156862,9.509803921568627,32.73,-126.52,206.21
85.35,249.0,30.49019607843137,-283.4901960784314,15.23,-83.99,191.72
85.4,122.0,-214.50980392156862,-175.49019607843138,4.14,-50.25,180.17
85.45,249.0,-225.0,282.01960784313724,-57.94,-23.13,160.95
85.5,186.0,-62.0,190.01960784313727,-51.99,-10.81,119.34
85.55,170.0,19.0,267.01960784313724,-10.62,-3.84,61.83
85.6,-313.5098039215686,150.0,267.01960784313724,-82.16,12.63,47.94
85.65,281.0,-225.0,-190.49019607843138,-33.62,-30.06,31.49
85.7,-139.50980392156862,101.0,-252.49019607843138,-121.12,-81.26,50.32
85.75,-91.50980392156863,237.50980392156862,116.50980392156863,-59.9,-63.87,73.03
85.8,-202.50980392156862,-18.50980392156863,205.01960784313727,42.11,-91.24,95.54
85.85,-266.5098039215686,-312.5098039215686,-283.4901960784314,80.37,-89.38,91.51
85.9,201.0,199.0,236.01960784313727,134.79,-84.66,70.79
85.95,186.0,215.0,221.01960784313727,109.17,-66.35,59.21
86.0,11.0,166.0,313.01960784313724,72.42,-24.32,53.64
86.05,11.0,150.0,267.01960784313724,30.07,-35.34,21.37
86.1,-195.0,-23.49019607843137,-113.49019607843137,-128.71,-23.9,24.0
86.15,-52.0,188.50980392156862,236.01960784313727,-56.96,-5.03,67.43
86.2,-68.0,-45.0,267.01960784313724,29.23,-21.97,15.32
86.25,58.0,166.0,113.01960784313725,33.85,12.32,64.81
86.3,-195.0,58.509803921568626,52.01960784313726,55.03,-26.63,22.07
86.35,-227.0,68.0,221.01960784313727,-15.14,-19.94,12.06
86.4,-243.0,237.50980392156862,-98.49019607843137,10.61,-10.49,12.62
86.45,-131.0,-45.0,-252.49019607843138,20.9,-16.65,29.91
86.5,-147.0,-13.0,-206.49019607843138,-30.12,-0.34,38.24
86.55,304.5098039215686,286.5098039215686,282.01960784313724,23.04,-1.08,32.71
86.6,-147.0,68.0,267.01960784313724,-22.52,12.11,27.88
86.65,304.5098039215686,-143.0,-267.4901960784314,-8.52,16.45,27.32
86.7,-227.0,-307.0,206.01960784313727,-35.09,27.44,39.47
86.75,304.5098039215686,221.50980392156862,67.01960784313725,61.36,22.47,33.62
86.8,-259.0,3.0,113.01960784313725,-7.23,27.26,24.45
86.85,-259.0,-62.0,-190.49019607843138,43.27,18.2,23.96
86.9,-100.0,-111.0,144.01960784313727,23.32,29.78,25.82
86.95,-52.0,-274.0,298.01960784313724,31.4,13.89,3.98
87.0,-68.0,-209.0,267.01960784313724,30.67,-31.11,-28.84
87.05,11.0,52.0,-52.490196078431374,-28.86,22.33,-35.88
87.1,-36.0,-192.0,82.01960784313725,29.09,16.97,-27.44
87.15,58.0,-89.49019607843137,309.52941176470586,-95.39,59.39,-14.25
87.2,-84.0,-23.49019607843137,298.01960784313724,83.83,15.22,-22.26
87.25,138.0,-94.0,-24.980392156862745,34.2,-32.96,17.45
87.3,122.0,270.5098039215686,316.5098039215686,76.69,-48.75,13.99
87.35,106.0,-29.0,236.01960784313727,8.34,-20.01,6.92
87.4,-68.0,205.50980392156862,39.509803921568626,41.06,-10.63,-2.07
87.45,-211.0,237.50980392156862,144.01960784313727,4.14,-36.46,-10.57
87.5,-36.0,90.50980392156863,-113.49019607843137,37.95,-39.65,14.02
87.55,-68.0,-23.49019607843137,-206.49019607843138,-47.23,-3.14,-36.51
87.6,-243.0,286.5098039215686,263.52941176470586,-29.24,-0.9,-27.06
87.65,240.50980392156862,9.509803921568627,159.01960784313727,-198.47,-12.91,-42.74
87.7,-259.0,-105.49019607843137,-267.4901960784314,-234.87,15.43,-3.33
87.75,256.5098039215686,286.5098039215686,224.50980392156862,134.34,-60.33,-7.07
87.8,-52.0,-220.01960784313727,252.01960784313727,52.51,-33.35,-29.05
87.85,-84.0,-225.0,39.509803921568626,-27.42,56.38,17.87
87.9,49.509803921568626,156.50980392156862,-40.98039215686274,131.92,36.57,25.89
87.95,27.0,183.0,144.01960784313727,44.42,48.68,36.39
88.0,-131.0,58.509803921568626,-160.49019607843138,28.74,36.22,27.53
88.05,-68.0,-241.0,-206.49019607843138,68.85,5.21,17.84
88.1,-163.0,-62.0,-175.49019607843138,-32.57,-8.6,45.35
88.15,-243.0,25.50980392156863,316.5098039215686,-6.42,13.82,10.87
88.2,-195.0,-29.0,129.01960784313727,-67.57,34.37,3.7
88.25,-163.0,156.50980392156862,5.019607843137255,-159.2,67.97,69.04
88.3,208.50980392156862,-40.490196078431374,-55.98039215686274,-157.9,40.07,24.31
88.35,-68.0,-45.0,-283.4901960784314,-8.91,16.94,51.44
88.4,106.0,166.0,113.01960784313725,117.36,-7.41,9.89
88.45,106.0,-176.0,252.01960784313727,-32.88,7.17,28.13
88.5,138.0,319.5098039215686,-144.49019607843138,240.49,-33.84,7.3
88.55,-313.5098039215686,297.0,267.01960784313724,286.31,-42.87,0.83
88.6,27.0,270.5098039215686,236.01960784313727,56.67,-38.28,4.92
88.65,11.0,259.01960784313724,116.50980392156863,41.41,-50.64,15.53
88.7,42.0,-241.0,-283.4901960784314,26.99,-19.8,32.71
88.75,90.0,74.50980392156863,-313.4901960784314,19.05,1.26,20.64
88.8,-131.0,-236.49019607843138,-236.49019607843138,-6.18,2.87,27.46
88.85,11.0,221.50980392156862,-52.490196078431374,10.86,-11.44,23.61
88.9,-4.0,41.509803921568626,-83.49019607843137,-15.94,7.98,20.5
88.95,-36.0,123.50980392156863,298.01960784313724,-18.22,17.99,-2.1
89.0,-68.0,-285.4901960784314,-190.49019607843138,-82.27,31.67,-24.47
89.05,-227.0,25.50980392156863,267.01960784313724,-55.21,20.37,-15.93
89.1,-195.0,-285.4901960784314,55.509803921568626,-147.3,-2.44,-7.32
89.15,-84.0,-121.49019607843137,-298.4901960784314,-192.69,65.8,-45.96
89.2,-259.0,188.50980392156862,-175.49019607843138,-90.21,-14.69,-101.29
89.25,42.0,-258.0,-175.49019607843138,270.1,-61.77,-124.57
89.3,-275.0,-72.49019607843137,301.5098039215686,226.07,38.25,-93.73
89.35,-77.49019607843137,35.0,86.50980392156863,-206.73,74.58,-43.86
89.4,208.50980392156862,-18.50980392156863,-252.49019607843138,-80.62,64.85,-11.31
89.45,-36.0,-318.01960784313724,24.50980392156863,164.61,47.11,-14.74
89.5,-131.0,-253.01960784313727,-83.49019607843137,87.75,16.8,-29.72
89.55,58.0,-280.5098039215686,298.01960784313724,-112.12,51.03,6.74
89.6,-131.0,150.0,-6.490196078431373,-34.91,41.19,25.54
89.65,-20.0,-302.01960784313724,55.509803921568626,93.77,-1.25,65.51
89.7,-123.50980392156863,79.49019607843137,147.50980392156862,206.86,-22.95,-7.81
89.75,313.0,-67.50980392156863,221.01960784313727,-197.94,118.37,-27.79
89.8,-116.0,-160.0,-64.0,34.38,42.21,4.89
89.85,-59.509803921568626,226.49019607843138,-298.4901960784314,-69.04,30.45,-23.28
89.9,233.0,248.0,70.50980392156863,-11.88,-2.97,-16.0
89.95,297.0,-18.50980392156863,-221.49019607843138,-9.61,-24.18,-29.51
90.0,90.0,-263.5098039215686,-175.49019607843138,-2.82,-28.03,-34.55
90.05,106.0,-198.50980392156862,-67.49019607843137,-21.16,-33.94,-26.18
90.1,265.0,-263.5098039215686,-6.490196078431373,34.06,-10.98,-18.03
90.15,154.0,-51.509803921568626,206.01960784313727,15.58,-8.01,-10.43
90.2,281.0,-133.50980392156862,-252.49019607843138,-11.99,-21.94,-6.23
90.25,249.0,313.0,-129.49019607843138,2.84,-37.02,-3.92
90.3,154.0,-18.50980392156863,-252.49019607843138,-38.03,-17.98,-20.34
90.35,42.0,-84.50980392156863,-252.49019607843138,-23.26,-9.79,-29.61
90.4,42.0,95.49019607843137,175.01960784313727,13.73,-14.38,0.44
90.45,-36.0,-51.509803921568626,-298.4901960784314,44.49,-8.22,19.52
90.5,27.0,-84.50980392156863,-129.49019607843138,26.78,13.82,9.96
90.55,-36.0,-214.50980392156862,-283.4901960784314,25.73,16.9,15.46
90.6,-36.0,-149.50980392156862,-175.49019607843138,2.04,9.97,25.96
90.65,-4.0,-116.50980392156863,-83.49019607843137,-24.62,18.48,18.36
90.7,-4.0,313.0,-67.49019607843137,42.11,21.63,18.78
90.75,58.0,-214.50980392156862,-252.49019607843138,14.99,27.65,15.95
90.8,122.0,281.0,-313.4901960784314,30.81,29.54,17.56
90.85,58.0,-198.50980392156862,-160.49019607843138,-124.69,9.66,24.84
90.9,233.0,313.0,301.5098039215686,24.37,7.1,19.73
90.95,74.0,-67.50980392156863,252.01960784313727,11.52,-5.07,20.43
91.0,-154.50980392156862,-182.50980392156862,101.50980392156863,3.44,11.2,23.23
91.05,249.0,313.0,-163.98039215686273,45.82,10.92,50.14
91.1,297.0,95.49019607843137,52.01960784313726,63.15,0.73,57.28
91.15,-266.5098039215686,-165.50980392156862,-144.49019607843138,110.82,-11.05,47.34
91.2,-298.5098039215686,-67.50980392156863,-313.4901960784314,62.41,-13.89,22.04
91.25,201.0,183.0,-236.49019607843138,106.51,-42.03,32.19
91.3,186.0,-149.50980392156862,282.01960784313724,94.61,-31.91,3.42
91.35,11.0,281.0,-67.49019607843137,35.5,-6.26,-41.3
91.4,-36.0,-209.0,-129.49019607843138,0.6,34.54,-85.37
91.45,-100.0,-192.0,-221.49019607843138,-30.96,37.41,-94.61
91.5,-52.0,3.0,-129.49019607843138,-4.85,20.61,-93.73
91.55,90.0,215.0,-175.49019607843138,7.67,5.28,-91.11
91.6,233.0,215.0,-190.49019607843138,44.42,-16.37,-87.47
91.65,265.0,281.0,298.01960784313724,18.24,-10.81,-104.27
91.7,154.0,215.0,175.01960784313727,43.76,-23.51,-93.7
91.75,138.0,166.0,36.01960784313726,127.58,-34.82,-66.78
91.8,186.0,150.0,82.01960784313725,124.19,-30.27,-82.11
91.85,90.0,-13.0,-252.49019607843138,100.11,-31.28,-67.83
91.9,27.0,-13.0,-175.49019607843138,44.6,-20.15,-42.04
91.95,27.0,-78.0,-298.4901960784314,36.79,-7.1,-31.78
92.0,74.0,-209.0,-206.49019607843138,41.48,-12.59,-25.83
92.05,122.0,-192.0,-313.4901960784314,-1.17,-1.46,-11.73
92.1,90.0,237.50980392156862,-236.49019607843138,54.08,-16.62,1.07
92.15,122.0,-307.0,313.01960784313724,-11.04,-3.32,-0.56
92.2,27.0,123.50980392156863,-267.4901960784314,12.01,-2.65,5.34
92.25,27.0,205.50980392156862,252.01960784313727,7.08,12.28,8.91
92.3,11.0,156.50980392156862,298.01960784313724,8.79,22.92,15.14
92.35,42.0,156.50980392156862,298.01960784313724,20.55,30.13,21.09
92.4,106.0,188.50980392156862,282.01960784313724,-26.97,27.68,1.21
92.45,106.0,205.50980392156862,-313.4901960784314,-4.74,17.04,35.76
92.5,90.0,303.5098039215686,236.01960784313727,7.32,7.38,30.72
92.55,138.0,-225.0,282.01960784313724,-18.95,12.84,18.4
92.6,74.0,-290.0,313.01960784313724,10.79,4.13,5.69
92.65,106.0,-192.0,-313.4901960784314,-15.94,8.08,4.85
92.7,27.0,303.5098039215686,-313.4901960784314,-10.1,-2.9,-0.6
92.75,42.0,-290.0,-283.4901960784314,-15.28,-14.13,-8.47
92.8,58.0,-307.0,-236.49019607843138,-17.76,-20.12,-4.8
92.85,106.0,303.5098039215686,-221.49019607843138,6.48,-25.26,-4.1
92.9,154.0,-290.0,-313.4901960784314,-18.5,-8.53,-9.56
92.95,122.0,303.5098039215686,-283.4901960784314,-30.75,-3.04,-10.26
93.0,42.0,-241.0,282.01960784313724,-74.11,-3.14,-0.28
93.05,27.0,319.5098039215686,-313.4901960784314,-36.7,-22.36,-12.5
93.1,58.0,-94.0,252.01960784313727,-39.81,-16.55,-32.45
93.15,58.0,-78.0,205.01960784313727,-76.14,-19.52,1.18
93.2,27.0,254.50980392156862,-24.980392156862745,98.11,-31.35,-40.78
93.25,-116.0,19.0,5.019607843137255,-11.39,-1.74,-39.94
93.3,-259.0,319.5098039215686,-37.490196078431374,8.58,-30.13,-33.11
93.35,-68.0,-45.0,-283.4901960784314,-91.96,12.11,-51.21
93.4,-306.0,286.5098039215686,-113.49019607843137,-48.11,-17.56,-50.61
93.45,42.0,-192.0,-160.49019607843138,-52.06,-6.08,-56.39
93.5,-84.0,-176.0,-313.4901960784314,-21.79,0.94,-49.32
93.55,-52.0,19.0,298.01960784313724,-22.35,-7.76,-40.18
