rel_time,acc_x,acc_y,acc_z,gyro_x,gyro_y,gyro_z
1771.0,106.0,319.5098039215686,313.01960784313724,-3.66,-3.6,21.27
1771.05,138.0,-258.0,298.01960784313724,-9.61,0.76,19.38
1771.1,-20.0,-192.0,252.01960784313727,-1.38,-1.29,11.92
1771.15,138.0,-209.0,-298.4901960784314,-3.76,-5.11,7.23
1771.2,233.0,-274.0,298.01960784313724,-4.36,2.09,-1.3
1771.25,170.0,-225.0,298.01960784313724,20.2,-2.62,-26.74
1771.3,27.0,-209.0,-283.4901960784314,5.54,-0.28,0.27
1771.35,106.0,-209.0,236.01960784313727,-13.32,-0.66,-5.81
1771.4,74.0,-192.0,298.01960784313724,0.11,-0.56,-6.69
1771.45,90.0,-176.0,298.01960784313724,5.08,-3.22,6.04
1771.5,11.0,-176.0,298.01960784313724,8.58,-4.55,-4.24
1771.55,170.0,-241.0,313.01960784313724,7.67,-1.36,-5.01
1771.6,122.0,-225.0,298.01960784313724,2.46,-0.1,2.16
1771.65,74.0,-192.0,-298.4901960784314,4.24,-1.92,-1.89
1771.7,154.0,-192.0,282.01960784313724,-1.31,-1.5,-3.57
1771.75,122.0,-258.0,282.01960784313724,1.02,-1.12,-0.88
1771.8,90.0,-225.0,-313.4901960784314,2.28,-4.16,-3.92
1771.85,122.0,-209.0,298.01960784313724,5.05,0.9,-7.07
1771.9,90.0,-241.0,282.01960784313724,6.8,0.34,-3.05
1771.95,122.0,-225.0,-298.4901960784314,-2.33,0.06,-3.89
1772.0,106.0,-258.0,298.01960784313724,6.34,-3.88,-3.47
1772.05,90.0,-209.0,298.01960784313724,19.96,-10.64,-5.92
1772.1,154.0,-192.0,298.01960784313724,13.27,-1.75,-9.1
1772.15,106.0,-258.0,267.01960784313724,4.52,3.6,-1.96
1772.2,106.0,-258.0,298.01960784313724,3.47,3.25,0.13
1772.25,138.0,-274.0,313.01960784313724,6.94,4.75,-1.51
1772.3,90.0,-209.0,267.01960784313724,-2.43,7.31,10.94
1772.35,138.0,-258.0,267.01960784313724,-8.63,8.92,-3.61
1772.4,42.0,-241.0,-298.4901960784314,-8.03,6.08,-6.83
1772.45,122.0,-209.0,282.01960784313724,4.21,1.74,-22.44
1772.5,42.0,-209.0,-313.4901960784314,33.75,-17.29,-12.81
1772.55,201.0,-274.0,282.01960784313724,28.36,-6.09,-26.99
1772.6,58.0,303.5098039215686,267.01960784313724,-6.77,-7.59,-35.11
1772.65,122.0,286.5098039215686,-283.4901960784314,12.33,-2.94,-11.24
1772.7,154.0,-160.0,252.01960784313727,8.51,15.22,-0.49
1772.75,90.0,319.5098039215686,282.01960784313724,1.9,10.18,71.6
1772.8,27.0,303.5098039215686,252.01960784313727,-14.61,13.19,-9.55
1772.85,186.0,-258.0,-160.49019607843138,-11.85,22.99,35.3
1772.9,-29.49019607843137,313.0,-298.4901960784314,-22.87,28.55,41.5
1772.95,19.49019607843137,194.01960784313727,-252.49019607843138,-28.12,34.01,43.11
1773.0,-43.509803921568626,-78.0,-267.4901960784314,-27.21,41.47,44.26
1773.05,-123.50980392156863,-209.0,-175.49019607843138,-19.65,36.22,30.47
1773.1,4.490196078431373,286.5098039215686,55.509803921568626,-24.34,34.19,22.21
1773.15,-123.50980392156863,19.0,101.50980392156863,1.72,23.06,15.63
1773.2,194.49019607843138,-176.0,-156.0,-13.81,22.78,6.22
1773.25,210.49019607843138,303.5098039215686,67.01960784313725,10.4,17.39,-5.71
1773.3,274.4901960784314,35.0,243.0,2.63,20.4,-16.24
1773.35,171.98039215686273,-160.0,-295.0,-9.85,20.43,-24.26
1773.4,28.980392156862745,35.0,132.50980392156862,3.05,17.42,-32.41
1773.45,-247.52941176470588,123.50980392156863,86.50980392156863,4.14,6.12,-25.69
1773.5,-311.52941176470586,-13.0,178.50980392156862,6.34,8.78,-21.63
1773.55,-298.5098039215686,-302.01960784313724,27.0,-3.8,18.44,-8.75
1773.6,-193.01960784313727,-274.0,-3.0,-25.85,32.44,-1.37
1773.65,219.98039215686273,-307.0,181.0,-20.04,40.87,5.06
1773.7,249.0,258.4901960784314,77.49019607843137,-24.45,40.73,16.86
1773.75,-130.01960784313727,25.50980392156863,0.49019607843137253,-20.6,41.15,26.69
1773.8,306.4901960784314,205.50980392156862,319.0,-23.57,29.57,12.55
1773.85,11.0,62.490196078431374,307.4901960784314,-3.9,13.22,-9.42
1773.9,-320.01960784313724,-40.490196078431374,-76.50980392156863,18.66,9.44,-29.47
1773.95,210.49019607843138,-290.0,-292.5098039215686,46.17,23.16,-41.27
1774.0,-84.0,-67.50980392156863,215.49019607843138,45.3,48.82,-30.42
1774.05,-257.01960784313724,-236.49019607843138,258.0,37.91,76.47,-30.42
1774.1,-11.509803921568627,-13.0,273.0,32.03,103.77,-30.91
1774.15,-68.0,-51.509803921568626,307.4901960784314,28.46,106.01,-54.78
1774.2,-311.52941176470586,-317.4901960784314,-292.5098039215686,-37.68,169.29,-65.0
1774.25,-43.509803921568626,-149.50980392156862,-15.509803921568627,-6.11,100.72,-82.04
1774.3,4.490196078431373,68.0,200.49019607843138,-18.92,111.96,-57.86
1774.35,-295.52941176470586,-317.4901960784314,27.0,-114.57,163.55,-9.1
1774.4,-154.50980392156862,-35.509803921568626,123.49019607843137,-81.71,184.44,29.39
1774.45,131.49019607843138,-307.0,0.49019607843137253,-104.0,192.7,40.1
1774.5,-209.01960784313727,-307.0,212.0,-78.66,163.27,18.5
1774.55,147.49019607843138,-45.0,-199.50980392156862,-81.71,129.67,21.58
1774.6,4.490196078431373,-78.0,-169.50980392156862,-82.51,124.45,18.05
1774.65,67.49019607843137,-209.0,-276.5098039215686,-63.68,132.43,18.64
1774.7,-43.509803921568626,-45.0,-292.5098039215686,-40.3,87.53,32.15
1774.75,242.49019607843138,-111.0,-30.50980392156863,-19.23,29.88,26.34
1774.8,-320.01960784313724,-143.0,92.49019607843137,-7.93,15.43,13.64
1774.85,258.4901960784314,-143.0,-61.509803921568626,-6.88,19.42,17.0
1774.9,-154.50980392156862,-176.0,-46.509803921568626,7.39,17.49,18.78
1774.95,-59.509803921568626,-94.0,15.490196078431373,6.45,-11.93,25.5
1775.0,-84.0,-67.50980392156863,215.49019607843138,35.81,-36.82,21.58
1775.05,-257.01960784313724,-236.49019607843138,258.0,48.03,-72.45,-15.65
1775.1,-11.509803921568627,-13.0,273.0,37.42,-64.85,-31.99
1775.15,-68.0,-51.509803921568626,307.4901960784314,38.47,-40.77,-9.42
1775.2,-311.52941176470586,-317.4901960784314,-292.5098039215686,13.83,-50.12,-10.08
1775.25,-43.509803921568626,-149.50980392156862,-15.509803921568627,16.74,-47.67,0.69
1775.3,4.490196078431373,68.0,200.49019607843138,11.03,-25.09,-5.5
1775.35,-295.52941176470586,-317.4901960784314,27.0,12.82,-9.83,-5.71
1775.4,-154.50980392156862,-35.509803921568626,123.49019607843137,5.96,-12.56,-2.35
1775.45,131.49019607843138,-307.0,0.49019607843137253,-1.38,-15.05,4.05
1775.5,-209.01960784313727,-307.0,212.0,-8.38,-2.06,-4.55
1775.55,147.49019607843138,-45.0,-199.50980392156862,-14.68,29.74,-24.64
1775.6,4.490196078431373,-78.0,-169.50980392156862,-72.26,47.52,-29.37
1775.65,67.49019607843137,-209.0,-276.5098039215686,-42.51,58.16,-42.74
1775.7,-43.509803921568626,-45.0,-292.5098039215686,-59.13,31.42,-19.99
1775.75,242.49019607843138,-111.0,-30.50980392156863,-35.68,-2.83,-5.53
1775.8,-320.01960784313724,-143.0,92.49019607843137,-37.36,54.17,-4.97
1775.85,258.4901960784314,-143.0,-61.509803921568626,-38.2,47.14,-5.64
1775.9,-154.50980392156862,-176.0,-46.509803921568626,16.88,9.93,-15.37
1775.95,-59.509803921568626,-94.0,15.490196078431373,58.67,-53.69,-53.9
1776.0,194.49019607843138,19.0,-169.50980392156862,35.36,-65.55,-26.08
1776.05,-305.01960784313724,-286.01960784313724,3.980392156862745,-19.97,14.27,14.58
1776.1,70.47058823529412,68.0,-12.019607843137255,-35.05,34.92,17.1
1776.15,-199.52941176470588,-268.4901960784314,-184.50980392156862,-12.44,16.37,18.33
1776.2,-50.01960784313726,-121.49019607843137,12.0,-25.15,21.45,14.83
1776.25,-161.01960784313727,-51.509803921568626,92.49019607843137,-24.62,25.51,14.86
1776.3,-98.01960784313725,-286.01960784313724,-27.019607843137255,-24.62,3.7,9.37
1776.35,67.49019607843137,-45.0,307.4901960784314,-10.24,-21.73,4.15
1776.4,4.490196078431373,194.01960784313727,-307.5098039215686,-10.34,-33.88,-10.71
1776.45,129.50980392156862,-219.49019607843138,166.0,-10.1,-40.0,-10.22
1776.5,2.5098039215686274,133.0,-230.50980392156862,3.47,-33.42,-18.8
1776.55,51.490196078431374,291.4901960784314,-273.01960784313724,1.76,-31.78,0.9
1776.6,163.49019607843138,52.0,307.4901960784314,6.38,-29.5,-3.01
1776.65,74.0,-301.4901960784314,227.0,12.68,-31.22,6.29
1776.7,-257.01960784313724,227.01960784313727,-295.0,2.49,-7.0,9.09
1776.75,-209.01960784313727,183.0,196.0,11.21,22.29,-1.72
1776.8,178.49019607843138,258.4901960784314,92.49019607843137,-2.61,12.63,-25.52
1776.85,-59.509803921568626,84.0,123.49019607843137,-5.62,15.78,-29.4
1776.9,115.49019607843137,292.01960784313724,-276.5098039215686,-10.73,25.96,9.54
1776.95,-320.01960784313724,-187.49019607843138,273.0,-8.87,35.45,17.24
1777.0,60.98039215686274,-231.50980392156862,153.49019607843138,0.46,0.38,-0.7
1777.05,67.49019607843137,-182.50980392156862,18.980392156862745,35.67,-25.79,-2.56
1777.1,-320.01960784313724,74.50980392156863,-258.01960784313724,48.8,-28.1,-22.54
1777.15,226.49019607843138,-45.0,-119.01960784313725,61.71,-115.95,45.77
1777.2,210.49019607843138,-258.0,261.4901960784314,187.43,-188.72,106.35
1777.25,-43.509803921568626,188.50980392156862,196.0,292.08,-190.26,88.78
1777.3,-257.01960784313724,-143.0,-156.0,190.9,-193.55,49.2
1777.35,131.49019607843138,-214.50980392156862,-218.0,99.34,-287.52,-113.61
1777.4,258.4901960784314,52.0,-261.5098039215686,92.23,-146.44,-188.55
1777.45,163.49019607843138,19.0,193.50980392156862,-243.02,61.77,-137.3
1777.5,290.4901960784314,-18.50980392156863,-184.50980392156862,86.95,38.04,67.96
1777.55,4.490196078431373,-252.49019607843138,-126.0,122.26,31.98,62.57
1777.6,-289.01960784313724,9.509803921568627,-295.0,-69.74,76.22,84.76
1777.65,-18.019607843137255,258.4901960784314,120.0,-50.84,54.59,97.64
1777.7,219.98039215686273,232.0,-36.490196078431374,-37.4,67.09,55.08
1777.75,-247.52941176470588,117.0,89.0,-1.14,90.57,45.42
1777.8,-279.52941176470586,-78.0,104.0,-15.31,115.11,31.45
1777.85,-295.52941176470586,-78.0,-79.0,-19.44,103.63,13.95
1777.9,-273.01960784313724,19.0,-18.0,-83.91,96.35,14.27
1777.95,-305.01960784313724,-225.0,-276.5098039215686,-50.17,73.32,-3.75
1778.0,51.490196078431374,68.0,289.0,-63.89,46.65,-5.39
1778.05,-170.50980392156862,-198.50980392156862,200.49019607843138,-54.58,60.61,-44.0
1778.1,-305.01960784313724,-247.50980392156862,-122.50980392156863,-91.09,67.33,-59.47
1778.15,58.0,-280.5098039215686,-76.50980392156863,-83.39,70.17,-57.89
1778.2,272.5098039215686,160.49019607843138,243.0,-80.03,41.92,-65.07
1778.25,-170.50980392156862,-148.98039215686273,181.0,-58.22,26.8,-50.96
1778.3,-75.50980392156863,-111.0,-153.50980392156862,-28.09,41.78,-13.86
1778.35,-107.50980392156863,-253.01960784313727,-107.50980392156863,-11.95,29.53,-14.53
1778.4,-82.01960784313725,101.0,-230.50980392156862,-10.52,29.25,-25.24
1778.45,-75.50980392156863,-78.0,-61.509803921568626,-5.37,-5.98,8.81
1778.5,-43.509803921568626,68.0,-258.01960784313724,-3.62,-22.85,14.55
1778.55,147.49019607843138,-13.0,184.49019607843138,4.0,6.4,-7.98
1778.6,210.49019607843138,-29.0,15.490196078431373,2.53,13.12,-6.13
1778.65,-241.01960784313727,-192.0,169.49019607843138,-5.72,2.2,5.06
1778.7,-43.509803921568626,-94.0,-258.01960784313724,-10.83,7.2,21.3
1778.75,163.49019607843138,281.0,-135.01960784313727,4.73,5.1,8.84
1778.8,-305.01960784313724,313.0,-181.01960784313727,4.52,-28.87,42.37
1778.85,-146.01960784313727,139.50980392156862,-258.01960784313724,69.45,-140.56,77.9
1778.9,67.49019607843137,-121.49019607843137,-107.50980392156863,214.42,-205.41,62.95
1778.95,19.49019607843137,-176.0,27.0,245.18,-207.97,43.74
1779.0,178.49019607843138,-192.0,-18.0,153.69,-165.93,10.0
1779.05,35.490196078431374,-290.0,270.5098039215686,89.33,-256.86,-104.83
1779.1,178.49019607843138,221.50980392156862,-184.50980392156862,253.51,-180.81,-151.13
1779.15,51.490196078431374,286.5098039215686,-249.0,-254.12,39.37,-165.73
1779.2,-241.01960784313727,25.50980392156863,-138.50980392156862,151.38,-17.78,68.83
1779.25,99.49019607843137,74.50980392156863,246.49019607843138,57.55,6.08,40.13
1779.3,-177.01960784313727,270.5098039215686,-67.49019607843137,-53.32,47.84,61.8
1779.35,-209.01960784313727,270.5098039215686,196.0,-13.49,-10.22,59.17
1779.4,267.98039215686276,221.50980392156862,-267.4901960784314,-10.13,25.51,80.45
1779.45,-311.52941176470586,205.50980392156862,316.5098039215686,-54.58,77.13,43.21
1779.5,314.98039215686276,237.50980392156862,104.0,-21.47,99.78,35.06
1779.55,12.980392156862745,41.509803921568626,-95.0,-25.22,101.91,26.97
1779.6,-146.01960784313727,-23.49019607843137,-64.0,-25.04,101.67,17.87
1779.65,-320.01960784313724,172.50980392156862,243.0,-63.47,100.76,8.77
1779.7,83.49019607843137,-111.0,181.0,-74.92,80.11,-5.46
1779.75,4.490196078431373,35.0,181.0,-129.73,74.12,-24.4
1779.8,-27.50980392156863,52.0,243.0,-76.35,82.98,-20.83
1779.85,178.49019607843138,264.0,73.0,-94.27,59.0,-18.03
1779.9,67.49019607843137,35.0,138.49019607843138,-81.74,58.76,-26.53
1779.95,-84.0,-8.019607843137255,-184.50980392156862,-64.56,67.54,-41.97
1780.0,242.49019607843138,80.01960784313725,320.0,-68.51,41.89,-45.12
1780.05,-305.01960784313724,-127.0,273.0,-47.9,39.09,-25.38
1780.1,122.0,128.49019607843138,320.0,-39.53,44.16,-28.46
1780.15,-3.019607843137255,313.0,-276.5098039215686,-24.48,37.83,-10.61
1780.2,-225.01960784313727,-231.50980392156862,61.490196078431374,-11.15,-33.77,-18.38
1780.25,-241.01960784313727,-29.0,184.49019607843138,-0.93,-5.53,-17.47
1780.3,274.4901960784314,84.0,153.49019607843138,3.02,1.92,-7.98
1780.35,-43.509803921568626,101.0,184.49019607843138,-5.48,2.23,0.65
1780.4,-225.01960784313727,183.0,-242.01960784313727,-13.35,21.24,21.16
1780.45,290.4901960784314,-29.0,-119.01960784313725,-14.44,44.76,43.42
1780.5,313.0,-62.0,-135.01960784313727,9.49,23.72,1.56
1780.55,-123.50980392156863,150.0,-242.01960784313727,17.3,-40.98,19.24
1780.6,131.49019607843138,84.0,277.4901960784314,67.91,-127.43,28.58
1780.65,-241.01960784313727,139.50980392156862,-76.50980392156863,169.09,-224.66,45.45
1780.7,178.49019607843138,68.0,58.0,241.61,-195.93,20.15
1780.75,306.4901960784314,-29.0,-79.0,217.32,-160.93,-30.63
1780.8,-209.01960784313727,101.0,-141.0,168.95,-189.91,-63.74
1780.85,242.49019607843138,254.50980392156862,12.0,151.59,-183.5,-139.23
1780.9,4.490196078431373,172.50980392156862,-95.0,93.0,-69.79,-135.73
1780.95,147.49019607843138,-209.0,-264.0,-38.1,25.96,21.9
1781.0,306.4901960784314,-225.0,-107.50980392156863,138.85,-5.25,49.48
1781.05,-273.01960784313724,-78.0,277.4901960784314,-27.14,16.93,7.55
1781.1,-241.01960784313727,-258.0,-165.01960784313727,32.35,-33.95,21.48
1781.15,-225.01960784313727,-176.0,-319.01960784313724,-15.8,-11.76,-11.38
1781.2,-18.019607843137255,-225.0,277.4901960784314,-11.22,20.57,16.05
1781.25,-215.52941176470588,205.50980392156862,-181.01960784313727,-14.26,47.38,51.09
1781.3,-199.52941176470588,221.50980392156862,-73.01960784313725,-49.09,85.43,73.73
1781.35,251.98039215686273,156.50980392156862,-289.01960784313724,-53.15,94.42,48.29
1781.4,140.98039215686273,90.50980392156863,-258.01960784313724,-37.33,109.86,31.31
1781.45,-289.01960784313724,270.5098039215686,-169.50980392156862,-46.64,108.32,28.44
1781.5,210.49019607843138,-29.0,-3.0,-59.34,82.07,16.93
1781.55,-11.509803921568627,101.0,-64.0,-62.6,63.48,16.37
1781.6,217.0,264.0,224.50980392156862,-86.89,50.04,-0.6
1781.65,115.49019607843137,-133.50980392156862,227.0,-102.53,68.8,-25.03
1781.7,201.0,30.49019607843137,239.50980392156862,-126.51,77.34,-46.59
1781.75,-147.0,297.0,56.96078431372549,-135.15,81.47,-56.25
1781.8,99.49019607843137,-115.98039215686275,147.50980392156862,-95.6,64.88,-50.54
1781.85,83.49019607843137,-127.0,132.50980392156862,-55.63,32.12,-52.12
1781.9,217.0,155.98039215686273,-156.0,-40.06,19.98,-45.92
1781.95,-3.019607843137255,84.0,-236.49019607843138,-15.03,44.09,-23.7
1782.0,-273.01960784313724,-296.5098039215686,-310.0,-21.58,49.24,11.26
1782.05,226.49019607843138,3.0,-141.0,-10.48,16.69,18.99
1782.1,178.49019607843138,101.0,-156.0,-4.43,-4.34,1.28
1782.15,115.49019607843137,52.0,-203.0,-5.44,0.55,1.6
1782.2,274.4901960784314,68.0,119.0,-5.2,2.83,18.4
1782.25,274.4901960784314,52.0,-3.0,10.16,-1.43,12.66
1782.3,258.4901960784314,19.0,27.0,10.58,-37.34,0.16
1782.35,274.4901960784314,-111.0,120.0,34.94,-82.63,49.27
1782.4,290.4901960784314,19.0,104.0,109.21,-172.69,74.12
1782.45,194.49019607843138,117.0,319.0,208.19,-180.32,59.28
1782.5,210.49019607843138,-307.0,304.0,231.6,-164.5,-11.1
1782.55,-75.50980392156863,254.50980392156862,258.0,187.78,-139.37,-56.81
1782.6,178.49019607843138,9.509803921568627,-292.5098039215686,69.76,-185.18,-111.97
1782.65,67.49019607843137,133.0,289.0,159.82,-54.11,-133.25
1782.7,-289.01960784313724,-274.0,243.0,-281.63,21.27,-58.49
1782.75,258.4901960784314,19.0,-246.50980392156862,143.82,-23.1,54.94
1782.8,274.4901960784314,-94.0,-276.5098039215686,33.5,-0.8,5.9
1782.85,44.98039215686274,205.50980392156862,-15.509803921568627,-51.47,21.13,30.93
1782.9,-225.01960784313727,-78.0,-30.50980392156863,43.3,-62.26,29.0
1782.95,290.4901960784314,68.0,-92.50980392156863,2.84,-20.96,-15.79
1783.0,-146.01960784313727,-94.0,-61.509803921568626,-15.8,6.64,-4.27
1783.05,187.98039215686273,-192.0,246.49019607843138,-26.16,29.5,65.58
1783.1,92.98039215686275,303.5098039215686,138.49019607843138,-22.59,56.34,98.48
1783.15,251.98039215686273,254.50980392156862,307.4901960784314,-34.28,87.98,75.8
1783.2,283.98039215686276,188.50980392156862,-135.01960784313727,-18.08,109.02,48.92
1783.25,267.98039215686276,58.509803921568626,-196.01960784313727,-43.07,122.11,27.08
1783.3,-98.01960784313725,107.50980392156863,107.49019607843137,-35.47,136.95,14.79
1783.35,226.49019607843138,156.50980392156862,-261.5098039215686,-87.76,120.22,3.0
1783.4,-75.50980392156863,-94.0,27.0,-135.68,62.64,-4.87
1783.45,178.49019607843138,84.0,-3.0,-95.88,55.71,-15.93
1783.5,265.0,-247.50980392156862,316.5098039215686,-84.68,45.63,-38.43
1783.55,-107.50980392156863,-247.50980392156862,286.5098039215686,-66.45,32.79,-69.9
1783.6,178.49019607843138,111.49019607843137,-261.5098039215686,-70.33,3.04,-94.43
1783.65,272.5098039215686,-45.0,-262.54901960784315,-45.06,10.7,-85.33
1783.7,258.4901960784314,-111.0,256.54901960784315,-41.67,19.14,-55.06
1783.75,226.49019607843138,183.0,-49.0,-45.27,17.81,-21.07
1783.8,92.98039215686275,133.0,9.509803921568627,-12.9,26.49,44.12
1783.85,140.98039215686273,313.0,-67.49019607843137,-20.21,32.96,35.86
1783.9,274.4901960784314,-116.50980392156863,12.0,-15.73,13.26,4.89
1783.95,274.4901960784314,-94.0,-49.0,-2.33,13.5,-1.16
1784.0,194.49019607843138,35.0,-110.0,-16.64,42.48,14.76
1784.05,83.49019607843137,52.0,-218.0,-50.52,46.02,24.66
1784.1,99.49019607843137,-45.0,-3.0,-25.46,11.4,21.83
1784.15,51.490196078431374,3.0,12.0,-40.23,5.66,6.46
1784.2,306.4901960784314,-45.0,196.0,-39.22,-0.24,22.77
1784.25,163.49019607843138,188.50980392156862,243.0,-54.51,-61.25,55.99
1784.3,-154.50980392156862,-111.0,-3.0,-107.29,-155.01,53.12
1784.35,115.49019607843137,19.0,196.0,-103.48,-193.86,14.16
1784.4,-273.01960784313724,-274.0,-307.5098039215686,-115.31,-189.31,-24.47
1784.45,131.49019607843138,237.50980392156862,-215.50980392156862,-54.02,-181.58,-79.1
1784.5,178.49019607843138,58.509803921568626,-15.509803921568627,-130.95,-172.65,-74.45
1784.55,-305.01960784313724,144.49019607843138,-30.50980392156863,-44.26,-227.22,-182.28
1784.6,210.49019607843138,-307.0,27.0,-25.92,-3.57,-17.25
1784.65,-59.509803921568626,150.0,227.0,-3.41,1.25,67.4
1784.7,19.49019607843137,-78.0,227.0,-16.01,82.14,-5.74
1784.75,163.49019607843138,-307.0,-92.50980392156863,-17.13,-5.63,12.55
1784.8,226.49019607843138,221.50980392156862,138.49019607843138,-6.91,-72.73,28.27
1784.85,306.4901960784314,-307.0,-258.01960784313724,-6.35,-23.45,-31.33
1784.9,-114.01960784313725,-209.0,77.49019607843137,-13.7,5.91,-5.29
1784.95,44.98039215686274,-111.0,123.49019607843137,-5.97,23.48,54.87
1785.0,-215.52941176470588,221.50980392156862,-273.01960784313724,-5.37,34.61,73.66
1785.05,-295.52941176470586,319.5098039215686,-196.01960784313727,-2.89,63.8,78.21
1785.1,-247.52941176470588,107.50980392156863,-196.01960784313727,6.73,86.16,66.14
1785.15,155.98039215686273,25.50980392156863,307.4901960784314,27.9,115.6,40.87
1785.2,-241.01960784313727,188.50980392156862,107.49019607843137,94.58,121.44,10.31
1785.25,178.49019607843138,286.5098039215686,-246.50980392156862,165.45,102.3,6.78
1785.3,178.49019607843138,-45.0,119.0,203.71,80.28,1.56
1785.35,83.49019607843137,-94.0,-141.0,182.71,75.94,-7.95
1785.4,297.0,248.0,-310.0,39.94,70.8,-8.65
1785.45,201.0,-214.50980392156862,-310.0,-298.88,62.82,-41.13
1785.5,-305.01960784313724,-198.50980392156862,73.0,-145.69,68.84,-26.74
1785.55,208.50980392156862,111.49019607843137,284.47058823529414,151.98,69.08,-54.57
1785.6,306.4901960784314,-1.9803921568627452,-249.0,-57.7,47.52,-54.85
1785.65,-91.50980392156863,-263.5098039215686,-264.0,-2.15,20.08,-30.35
1785.7,92.98039215686275,-116.50980392156863,-310.0,25.38,26.42,-14.18
1785.75,-66.01960784313725,-94.0,-156.0,14.08,22.11,5.41
1785.8,-305.01960784313724,248.0,104.0,-8.84,-58.83,-22.4
1785.85,306.4901960784314,35.0,104.0,-8.98,1.92,-10.19
1785.9,306.4901960784314,3.0,12.0,-24.03,34.36,6.85
1785.95,194.49019607843138,133.0,-33.0,-25.95,-19.14,13.25
1786.0,147.49019607843138,-45.0,58.0,-60.71,85.15,20.36
1786.05,-170.50980392156862,-62.0,58.0,-54.48,101.46,13.74
1786.1,51.490196078431374,281.0,43.0,-73.17,94.14,38.63
1786.15,115.49019607843137,248.0,58.0,-59.1,92.32,71.77
1786.2,147.49019607843138,52.0,-64.0,-68.65,75.84,56.69
1786.25,178.49019607843138,-62.0,12.0,-97.35,72.06,37.96
1786.3,226.49019607843138,172.50980392156862,184.49019607843138,-130.64,66.56,-12.53
1786.35,-43.509803921568626,166.0,-199.50980392156862,-103.27,66.04,-66.71
1786.4,-305.01960784313724,-225.0,212.0,-93.05,55.75,-89.15
1786.45,83.49019607843137,-127.0,273.0,-41.6,42.66,-167.55
1786.5,115.49019607843137,-94.0,73.0,-19.65,24.67,-107.07
1786.55,-11.509803921568627,270.5098039215686,-276.5098039215686,-41.56,24.07,56.72
1786.6,19.49019607843137,-160.0,-122.50980392156863,-44.05,53.51,31.14
1786.65,-289.01960784313724,-258.0,61.490196078431374,-49.79,15.74,4.22
1786.7,76.98039215686275,123.50980392156863,-12.019607843137255,-9.29,-23.8,3.35
1786.75,-130.01960784313727,-45.0,0.49019607843137253,-7.26,21.27,-14.25
1786.8,171.98039215686273,19.0,107.49019607843137,-19.51,39.23,11.75
1786.85,-263.52941176470586,-258.0,-165.01960784313727,-15.87,21.27,40.62
1786.9,187.98039215686273,41.509803921568626,-73.01960784313725,12.05,18.79,83.64
1786.95,-311.52941176470586,25.50980392156863,-119.01960784313725,7.67,-8.08,70.51
1787.0,147.49019607843138,-45.0,58.0,-60.71,85.15,37.68
1787.05,-170.50980392156862,-62.0,58.0,-54.48,101.46,16.75
1787.1,51.490196078431374,281.0,43.0,-73.17,94.14,16.44
1787.15,115.49019607843137,248.0,58.0,-59.1,92.32,-1.09
1787.2,147.49019607843138,52.0,-64.0,-68.65,75.84,-2.45
1787.25,178.49019607843138,-62.0,12.0,-97.35,72.06,-25.94
1787.3,226.49019607843138,172.50980392156862,184.49019607843138,-130.64,66.56,-45.4
1787.35,-43.509803921568626,166.0,-199.50980392156862,-103.27,66.04,-39.73
1787.4,-305.01960784313724,-225.0,212.0,-93.05,55.75,-43.26
1787.45,83.49019607843137,-127.0,273.0,-41.6,42.66,-25.97
1787.5,115.49019607843137,-94.0,73.0,-19.65,24.67,-23.63
1787.55,-11.509803921568627,270.5098039215686,-276.5098039215686,-41.56,24.07,-36.54
1787.6,19.49019607843137,-160.0,-122.50980392156863,-44.05,53.51,-29.19
1787.65,-289.01960784313724,-258.0,61.490196078431374,-49.79,15.74,8.53
1787.7,76.98039215686275,123.50980392156863,-12.019607843137255,-9.29,-23.8,-3.99
1787.75,-130.01960784313727,-45.0,0.49019607843137253,-7.26,21.27,-3.85
1787.8,171.98039215686273,19.0,107.49019607843137,-19.51,39.23,28.3
1787.85,-263.52941176470586,-258.0,-165.01960784313727,-15.87,21.27,16.61
1787.9,187.98039215686273,41.509803921568626,-73.01960784313725,12.05,18.79,-3.4
1787.95,-311.52941176470586,25.50980392156863,-119.01960784313725,7.67,-8.08,24.98
1788.0,140.98039215686273,237.50980392156862,-181.01960784313727,36.23,-82.18,51.51
1788.05,-305.01960784313724,221.50980392156862,-76.50980392156863,111.13,-195.37,31.94
1788.1,-43.509803921568626,-192.0,58.0,171.3,-207.2,21.34
1788.15,-27.50980392156863,-225.0,-110.0,195.41,-187.91,-31.82
1788.2,-154.50980392156862,281.0,-172.0,153.41,-174.33,-68.25
1788.25,-202.50980392156862,297.0,-64.0,214.94,-200.06,-169.12
1788.3,226.49019607843138,172.50980392156862,-15.509803921568627,78.27,-58.38,-141.47
1788.35,113.50980392156863,-73.01960784313725,316.5098039215686,-299.72,40.28,-29.02
1788.4,313.0,-268.4901960784314,222.47058823529412,166.54,11.12,47.38
1788.45,258.4901960784314,-290.0,140.52941176470588,-70.58,55.89,34.43
1788.5,154.0,-302.01960784313724,61.490196078431374,11.7,-8.19,34.43
1788.55,219.98039215686273,101.0,147.50980392156862,24.82,-27.51,-1.16
1788.6,-50.01960784313726,232.0,86.50980392156863,2.07,-16.17,-22.02
1788.65,258.4901960784314,183.0,-33.0,1.93,-2.45,-1.16
1788.7,194.49019607843138,35.0,-49.0,-6.39,2.69,26.76
1788.75,306.4901960784314,84.0,-95.0,-13.49,19.03,51.51
1788.8,306.4901960784314,117.0,-3.0,-20.63,35.55,69.36
1788.85,131.49019607843138,101.0,-33.0,-35.51,55.99,68.38
1788.9,-27.50980392156863,3.0,43.0,-45.13,89.42,50.88
1788.95,115.49019607843137,3.0,-49.0,-65.85,111.92,28.51
1789.0,242.49019607843138,248.0,120.0,-61.69,115.11,8.91
1789.05,-11.509803921568627,264.0,-218.0,-65.64,98.87,-3.43
1789.1,210.49019607843138,-111.0,289.0,-101.94,79.09,-17.36
1789.15,178.49019607843138,286.5098039215686,-123.50980392156863,-115.13,77.38,-43.37
1789.2,163.49019607843138,117.0,212.0,-106.98,85.81,-47.46
1789.25,-241.01960784313727,101.0,27.0,-141.87,73.39,-48.51
1789.3,83.49019607843137,-274.0,89.0,-91.75,70.8,-56.04
1789.35,194.49019607843138,-274.0,-95.0,-59.59,46.61,-46.2
1789.4,83.49019607843137,-225.0,-215.50980392156862,-22.56,33.66,-33.29
1789.45,-305.01960784313724,-258.0,-215.50980392156862,-38.73,22.32,-25.06
1789.5,147.49019607843138,-160.0,230.49019607843138,-34.53,3.81,10.52
1789.55,108.98039215686275,139.50980392156862,-104.01960784313725,-9.19,-12.28,10.49
1789.6,51.490196078431374,-143.0,261.4901960784314,-13.7,12.24,3.59
1789.65,-130.01960784313727,-45.0,292.4901960784314,-1.91,-9.38,7.93
1789.7,-34.01960784313726,-192.0,-304.01960784313724,-5.13,6.54,9.16
1789.75,267.98039215686276,107.50980392156863,-196.01960784313727,-22.94,52.32,-0.49
1789.8,171.98039215686273,319.5098039215686,34.98039215686274,0.39,-8.82,1.42
1789.85,171.98039215686273,58.509803921568626,-242.01960784313727,5.36,-58.1,46.75
1789.9,-18.019607843137255,-72.49019607843137,-212.01960784313727,44.07,-128.59,43.0
1789.95,131.49019607843138,221.50980392156862,-30.50980392156863,127.23,-191.62,40.03
1790.0,147.49019607843138,-160.0,212.0,258.48,-186.55,-4.8
1790.05,-154.50980392156862,101.0,-218.0,268.39,-195.23,-50.33
1790.1,-202.50980392156862,232.0,-264.0,236.5,-176.68,-84.39
1790.15,297.0,-62.0,212.0,224.99,-173.95,-164.12
1790.2,51.490196078431374,35.0,289.0,-97.28,-39.9,-99.37
1790.25,-179.0,138.98039215686273,-122.50980392156863,50.48,48.36,53.85
1790.3,131.49019607843138,308.01960784313724,-27.019607843137255,40.22,78.85,75.97
1790.35,-186.50980392156862,-105.49019607843137,-249.0,-38.24,28.27,18.5
1790.4,-123.50980392156863,35.0,-292.5098039215686,38.68,-33.07,32.82
1790.45,-152.52941176470588,-94.0,86.50980392156863,14.25,-36.05,-13.79
1790.5,-177.01960784313727,297.0,-110.0,9.7,-14.84,-10.75
1790.55,242.49019607843138,101.0,-33.0,3.51,10.11,15.53
1790.6,163.49019607843138,-78.0,-264.0,-9.15,32.09,27.74
1790.65,306.4901960784314,-78.0,-49.0,-20.91,51.06,60.26
1790.7,115.49019607843137,19.0,43.0,-48.98,72.72,55.74
1790.75,178.49019607843138,19.0,89.0,-40.65,89.87,48.29
1790.8,242.49019607843138,-176.0,320.0,-38.03,95.09,38.52
1790.85,-91.50980392156863,-45.0,27.0,-52.69,100.37,18.96
1790.9,-11.509803921568627,166.0,73.0,-75.72,99.25,7.2
1790.95,4.490196078431373,133.0,104.0,-104.25,94.04,-6.23
1791.0,-320.01960784313724,-62.0,-76.50980392156863,-69.95,91.59,-22.82
1791.05,-218.50980392156862,172.50980392156862,-289.01960784313724,-111.32,70.41,-37.28
1791.1,-59.509803921568626,-214.50980392156862,-138.50980392156862,-69.67,76.92,-23.73
1791.15,-146.01960784313727,270.5098039215686,-307.5098039215686,-6.42,45.18,-46.45
1791.2,131.49019607843138,-72.49019607843137,-276.5098039215686,-31.31,-21.49,-66.43
1791.25,35.490196078431374,35.0,-199.50980392156862,-34.32,1.04,-60.45
1791.3,258.4901960784314,-111.0,-61.509803921568626,-15.07,25.23,-47.08
1791.35,-273.01960784313724,270.5098039215686,-107.50980392156863,-29.63,8.25,20.85
1791.4,-82.01960784313725,-241.0,61.490196078431374,-6.25,-32.9,10.14
1791.45,35.490196078431374,-192.0,-107.50980392156863,-19.9,38.21,-13.02
1791.5,290.4901960784314,-94.0,-107.50980392156863,-23.68,66.39,-0.07
1791.55,-225.01960784313727,84.0,-30.50980392156863,-28.33,29.08,5.87
1791.6,299.98039215686276,-225.0,-89.01960784313725,-3.83,12.63,10.45
1791.65,235.98039215686273,286.5098039215686,-212.01960784313727,-17.83,22.11,21.3
1791.7,155.98039215686273,-290.0,-104.01960784313725,12.57,-11.13,15.35
1791.75,219.98039215686273,-40.490196078431374,-165.01960784313727,1.93,-34.44,17.94
1791.8,60.98039215686274,205.50980392156862,-73.01960784313725,37.14,-109.83,18.4
1791.85,-320.01960784313724,-209.0,15.490196078431373,85.83,-173.53,19.2
1791.9,83.49019607843137,-62.0,258.0,174.62,-165.2,-13.51
1791.95,-123.50980392156863,19.0,-95.0,175.46,-163.2,-82.39
1792.0,115.49019607843137,68.0,-64.0,140.88,-152.35,-93.42
1792.05,147.49019607843138,-198.50980392156862,-18.0,188.06,-157.74,-182.74
1792.1,35.490196078431374,52.0,181.0,187.57,-35.21,-44.17
1792.15,-161.01960784313727,138.98039215686273,224.50980392156862,-12.23,27.64,53.75
1792.2,242.49019607843138,-83.98039215686275,22.470588235294116,85.51,15.71,13.22
1792.25,-241.01960784313727,270.5098039215686,-64.0,-72.89,56.62,54.59
1792.3,171.98039215686273,111.49019607843137,-64.0,43.76,-39.62,56.62
1792.35,210.49019607843138,133.0,-175.49019607843138,32.73,-37.41,-2.98
1792.4,267.98039215686276,150.0,89.0,-1.28,-17.64,-23.63
1792.45,251.98039215686273,-94.0,-61.509803921568626,-18.04,18.44,35.97
1792.5,-152.52941176470588,35.0,27.0,-14.89,39.65,83.43
1792.55,219.98039215686273,-13.0,-187.0,-5.93,56.73,94.0
1792.6,-305.01960784313724,35.0,-33.0,-39.67,86.3,41.74
1792.65,99.49019607843137,-62.0,104.0,-75.65,116.68,26.31
1792.7,-75.50980392156863,-143.0,89.0,-67.08,121.76,20.5
1792.75,-202.50980392156862,-45.0,-187.0,-74.36,114.58,7.62
1792.8,-234.50980392156862,101.0,89.0,-114.89,70.55,-3.75
1792.85,-11.509803921568627,313.0,58.0,-88.01,43.53,-10.22
1792.9,-170.50980392156862,270.5098039215686,-169.50980392156862,-97.04,34.61,-12.85
1792.95,233.0,-192.0,-76.50980392156863,-86.19,55.99,-52.05
1793.0,163.49019607843138,-111.0,289.0,-100.15,59.25,-64.96
1793.05,-27.50980392156863,58.509803921568626,-261.5098039215686,-99.24,44.51,-63.42
1793.1,-234.50980392156862,-127.0,-33.0,-36.03,56.2,-56.67
1793.15,-66.01960784313725,-290.0,120.0,-42.47,65.86,-40.39
1793.2,194.49019607843138,-192.0,-199.50980392156862,-50.17,83.19,3.7
1793.25,274.4901960784314,-274.0,-46.509803921568626,-57.59,47.77,11.61
1793.3,147.49019607843138,319.5098039215686,292.4901960784314,-4.64,-33.81,-13.27
1793.35,-27.50980392156863,205.50980392156862,153.49019607843138,-14.72,33.31,17.56
1793.4,-139.50980392156862,-241.0,-273.01960784313724,-28.09,27.36,43.46
1793.45,99.49019607843137,-241.0,-42.01960784313726,-3.66,4.19,44.37
1793.5,147.49019607843138,-72.49019607843137,172.98039215686273,21.25,-31.43,46.01
1793.55,-305.01960784313724,90.50980392156863,-150.01960784313727,16.0,-99.26,66.98
1793.6,19.49019607843137,188.50980392156862,123.49019607843137,71.97,-151.55,58.47
1793.65,4.490196078431373,286.5098039215686,243.0,156.49,-168.45,31.56
1793.7,163.49019607843138,-78.0,212.0,146.69,-187.88,-15.61
1793.75,210.49019607843138,-209.0,12.0,202.2,-164.29,-94.33
1793.8,-225.01960784313727,-198.50980392156862,-126.0,207.17,-169.33,-146.79
1793.85,4.490196078431373,264.0,-110.0,240.77,-164.25,-175.46
1793.9,92.98039215686275,-143.0,89.0,-75.55,-16.31,-18.3
1793.95,-98.01960784313725,144.49019607843138,169.49019607843138,28.43,12.45,20.64
1794.0,163.49019607843138,264.52941176470586,234.98039215686273,11.0,4.89,-3.57
1794.05,226.49019607843138,-127.0,86.50980392156863,-40.69,17.84,45.17
1794.1,4.490196078431373,-2.5098039215686274,-156.0,58.18,-48.96,26.76
1794.15,-107.50980392156863,-62.0,224.50980392156862,32.35,-32.16,-1.19
1794.2,35.490196078431374,199.0,104.0,-27.18,4.96,17.1
1794.25,35.490196078431374,84.0,196.0,-33.13,43.18,64.39
1794.3,115.49019607843137,-29.0,89.0,-22.03,71.25,81.36
1794.35,178.49019607843138,68.0,43.0,-63.72,94.49,69.95
1794.4,147.49019607843138,3.0,43.0,-74.74,119.52,37.16
1794.45,115.49019607843137,-29.0,-18.0,-48.07,113.81,17.1
1794.5,194.49019607843138,150.0,43.0,-104.7,107.48,31.73
1794.55,258.4901960784314,183.0,227.0,-73.83,106.92,2.05
1794.6,-154.50980392156862,166.0,-64.0,-116.32,87.04,-10.4
1794.65,-218.50980392156862,-78.0,181.0,-77.09,87.98,-38.5
1794.7,-27.50980392156863,-209.0,243.0,-113.14,54.35,-52.64
1794.75,4.490196078431373,-154.49019607843138,212.0,-94.9,43.15,-75.11
1794.8,-107.50980392156863,-89.49019607843137,-169.50980392156862,-108.83,16.41,-79.98
1794.85,-59.509803921568626,-143.0,46.490196078431374,-59.1,111.78,-19.92
1794.9,-11.509803921568627,221.50980392156862,-61.509803921568626,-71.17,-2.8,44.09
1794.95,67.49019607843137,-236.49019607843138,264.98039215686276,12.12,-67.83,-13.86
1795.0,-107.50980392156863,90.50980392156863,-215.50980392156862,3.65,-6.4,1.63
1795.05,147.49019607843138,-40.490196078431374,-122.50980392156863,6.52,3.11,6.88
1795.1,115.49019607843137,41.509803921568626,-276.5098039215686,-44.4,-10.71,17.52
1795.15,-107.50980392156863,156.50980392156862,-92.50980392156863,-3.9,8.36,10.38
1795.2,-43.509803921568626,25.50980392156863,-246.50980392156862,-6.18,6.29,6.36
1795.25,51.490196078431374,41.509803921568626,-153.50980392156862,-18.01,11.93,10.35
1795.3,-11.509803921568627,172.50980392156862,-46.509803921568626,-20.14,20.26,30.65
1795.35,-59.509803921568626,58.509803921568626,-199.50980392156862,-26.37,24.07,33.13
1795.4,131.49019607843138,41.509803921568626,-169.50980392156862,-25.99,2.51,-4.2
1795.45,99.49019607843137,58.509803921568626,46.490196078431374,-25.39,6.75,1.81
1795.5,147.49019607843138,123.50980392156863,30.49019607843137,-11.57,26.38,22.67
1795.55,131.49019607843138,139.50980392156862,-92.50980392156863,-18.74,16.09,11.92
1795.6,-43.509803921568626,156.50980392156862,-92.50980392156863,-12.51,-10.08,-5.85
1795.65,99.49019607843137,58.509803921568626,-92.50980392156863,-8.66,-2.59,-3.54
1795.7,99.49019607843137,139.50980392156862,-92.50980392156863,-7.51,5.49,5.38
1795.75,-186.50980392156862,156.50980392156862,-46.509803921568626,-3.24,-0.14,3.24
1795.8,83.49019607843137,308.01960784313724,-107.50980392156863,-4.95,-1.78,3.24
1795.85,-75.50980392156863,303.5098039215686,-61.509803921568626,-9.64,8.78,19.52
1795.9,-43.509803921568626,188.50980392156862,-76.50980392156863,-4.53,16.55,33.9
1795.95,-320.01960784313724,139.50980392156862,-153.50980392156862,-1.07,-10.29,12.69
1796.0,-43.509803921568626,-23.49019607843137,-46.509803921568626,4.0,-22.26,0.02
1796.05,-34.01960784313726,-290.0,-15.509803921568627,7.57,-2.03,9.61
1796.1,27.0,-225.0,-184.50980392156862,-11.32,-0.03,-0.98
1796.15,83.49019607843137,46.490196078431374,-153.50980392156862,-13.77,-3.71,-11.69
1796.2,-186.50980392156862,90.50980392156863,-230.50980392156862,-2.33,4.86,-6.48
1796.25,258.4901960784314,-78.0,-246.50980392156862,-7.19,-1.82,-8.72
1796.3,210.49019607843138,-29.0,-153.50980392156862,-4.04,-15.64,-15.96
1796.35,194.49019607843138,281.0,-215.50980392156862,7.32,-14.7,-18.69
1796.4,-225.01960784313727,117.0,-261.5098039215686,-5.16,-8.19,-21.7
1796.45,28.980392156862745,-296.5098039215686,-107.50980392156863,-3.83,-0.7,-8.23
1796.5,12.980392156862745,-263.5098039215686,-153.50980392156862,-0.72,-0.42,-0.39
1796.55,-257.01960784313724,297.0,-199.50980392156862,2.46,-17.32,-3.47
1796.6,258.4901960784314,52.0,-184.50980392156862,23.6,14.52,-3.43
1796.65,178.49019607843138,52.0,276.4901960784314,7.71,19.73,-11.27
1796.7,4.490196078431373,-62.0,138.49019607843138,-1.7,-7.24,-17.75
1796.75,67.49019607843137,-258.0,46.490196078431374,13.41,-7.38,-24.29
1796.8,178.49019607843138,319.5098039215686,-61.509803921568626,11.91,-1.54,-26.39
1796.85,178.49019607843138,90.50980392156863,258.0,6.27,-11.55,-29.3
1796.9,19.49019607843137,-143.0,-122.50980392156863,14.95,-3.53,-30.45
1796.95,-91.50980392156863,-13.0,-138.50980392156862,0.39,-33.91,8.49
1797.0,-43.509803921568626,-23.49019607843137,-92.50980392156863,41.62,13.71,6.74
1797.05,-34.01960784313726,-290.0,119.0,19.61,-47.11,-50.4
1797.1,27.0,-225.0,-123.50980392156863,39.1,-54.63,-61.99
1797.15,83.49019607843137,46.490196078431374,163.50980392156862,53.1,-80.92,-81.34
1797.2,-186.50980392156862,90.50980392156863,184.49019607843138,53.28,-114.34,-99.86
1797.25,258.4901960784314,-78.0,-156.0,108.02,-156.17,-123.13
1797.3,210.49019607843138,-29.0,-141.0,110.57,-199.15,-119.53
1797.35,194.49019607843138,281.0,-156.0,188.24,-215.11,-100.45
1797.4,-225.01960784313727,117.0,239.50980392156862,184.84,-204.43,-48.79
1797.45,28.980392156862745,-296.5098039215686,70.50980392156863,136.89,-185.95,3.49
1797.5,12.980392156862745,-263.5098039215686,-233.0,106.06,-130.72,37.26
1797.55,-257.01960784313724,297.0,101.50980392156863,90.69,-76.37,53.12
1797.6,258.4901960784314,52.0,-6.490196078431373,38.16,-19.46,81.99
1797.65,178.49019607843138,52.0,-83.49019607843137,10.72,-9.34,95.43
1797.7,4.490196078431373,-62.0,-83.49019607843137,-3.66,8.71,106.32
1797.75,67.49019607843137,-258.0,-160.49019607843138,-11.64,-0.49,107.58
1797.8,178.49019607843138,319.5098039215686,70.50980392156863,-9.57,-55.47,61.13
1797.85,178.49019607843138,90.50980392156863,224.50980392156862,-16.22,-59.95,42.76
1797.9,19.49019607843137,-143.0,-37.490196078431374,-16.64,-42.28,21.3
1797.95,-91.50980392156863,-13.0,113.01960784313725,-5.09,-57.64,-3.82
1798.0,313.0,-307.0,-267.4901960784314,-173.62,-16.73,16.54
1798.05,297.0,-274.0,298.01960784313724,37.49,-46.41,35.83
1798.1,297.0,319.5098039215686,-298.4901960784314,-78.03,-2.27,-24.43
1798.15,297.0,319.5098039215686,-283.4901960784314,28.22,-28.45,-8.51
1798.2,297.0,-241.0,-283.4901960784314,-6.14,1.25,9.82
1798.25,-313.5098039215686,-94.0,-236.49019607843138,24.26,8.78,12.66
1798.3,281.0,188.50980392156862,-298.4901960784314,-17.62,1.32,8.74
1798.35,90.0,-307.0,252.01960784313727,-23.68,8.57,16.3
1798.4,217.0,286.5098039215686,298.01960784313724,23.35,-0.59,2.75
1798.45,138.0,35.0,-24.980392156862745,30.91,-1.15,-6.62
1798.5,265.0,-111.0,-267.4901960784314,-27.28,0.97,17.8
1798.55,51.490196078431374,313.0,-236.49019607843138,-27.74,-10.39,16.68
1798.6,274.4901960784314,3.0,-310.0,-23.22,-11.48,40.48
1798.65,194.49019607843138,-29.0,-156.0,17.79,-12.63,-20.2
1798.7,-75.50980392156863,-45.0,163.50980392156862,16.49,-14.98,-12.53
1798.75,74.0,-13.0,144.01960784313727,5.68,-3.88,1.95
1798.8,11.0,-209.0,36.01960784313726,3.3,-2.94,3.63
1798.85,304.5098039215686,254.50980392156862,-24.980392156862745,-9.82,3.6,2.82
1798.9,201.0,-143.0,82.01960784313725,10.58,-6.37,1.42
1798.95,-290.0,-29.0,252.01960784313727,0.99,-7.94,-1.12
1799.0,-36.0,-127.0,236.01960784313727,5.54,-8.5,-1.05
1799.05,193.50980392156862,-225.0,-283.4901960784314,5.43,-6.33,0.23
1799.1,-20.0,-160.0,206.01960784313727,26.89,-7.0,5.03
1799.15,304.5098039215686,270.5098039215686,252.01960784313727,-23.43,1.92,-17.22
1799.2,-227.0,-241.0,313.01960784313724,33.05,-16.62,6.22
1799.25,240.50980392156862,-307.0,252.01960784313727,-6.32,1.25,-15.96
1799.3,-211.0,-78.0,267.01960784313724,4.21,16.65,-5.18
1799.35,-306.0,-274.0,-298.4901960784314,-0.02,36.74,5.13
1799.4,-290.0,-127.0,-298.4901960784314,8.76,90.36,23.51
1799.45,-100.0,-225.0,236.01960784313727,-36.84,124.0,75.41
1799.5,-147.0,-127.0,267.01960784313724,-41.91,111.68,110.03
1799.55,-195.0,-209.0,298.01960784313724,-92.7,33.07,157.63
1799.6,-131.0,-192.0,298.01960784313724,-101.31,-48.82,186.61
1799.65,-290.0,-290.0,-298.4901960784314,-65.26,-102.97,198.79
1799.7,320.5098039215686,-176.0,206.01960784313727,-33.93,-72.66,199.73
1799.75,-195.0,-176.0,313.01960784313724,-21.72,-28.63,196.86
1799.8,-163.0,-225.0,267.01960784313724,-101.2,21.41,109.12
1799.85,-204.49019607843138,199.0,175.01960784313727,-45.52,2.06,197.46
1799.9,297.0,52.0,144.01960784313727,-13.46,2.76,195.22
1799.95,-131.0,-143.0,-298.4901960784314,-16.89,11.86,118.64
1800.0,-36.0,-127.0,236.01960784313727,-38.59,21.03,85.0
1800.05,193.50980392156862,-225.0,-283.4901960784314,18.52,-8.96,151.5
1800.1,-20.0,-160.0,206.01960784313727,11.35,-5.32,124.48
1800.15,304.5098039215686,270.5098039215686,252.01960784313727,-43.1,37.97,150.42
1800.2,-227.0,-241.0,313.01960784313724,3.05,2.37,124.76
1800.25,240.50980392156862,-307.0,252.01960784313727,-15.66,-4.2,66.24
1800.3,-211.0,-78.0,267.01960784313724,-43.49,-6.47,67.57
1800.35,-306.0,-274.0,-298.4901960784314,5.61,-10.36,37.23
1800.4,-290.0,-127.0,-298.4901960784314,-2.54,-8.61,74.57
1800.45,-100.0,-225.0,236.01960784313727,26.12,-24.43,54.13
1800.5,-147.0,-127.0,267.01960784313724,-4.92,-7.94,71.32
1800.55,-195.0,-209.0,298.01960784313724,3.72,-8.26,137.71
1800.6,-131.0,-192.0,298.01960784313724,20.2,-10.64,90.25
1800.65,-290.0,-290.0,-298.4901960784314,2.18,11.82,50.42
1800.7,320.5098039215686,-176.0,206.01960784313727,-11.71,37.34,-17.15
1800.75,-195.0,-176.0,313.01960784313724,-23.57,72.51,1.53
1800.8,-163.0,-225.0,267.01960784313724,-57.8,86.16,110.17
1800.85,-204.49019607843138,199.0,175.01960784313727,-30.89,66.42,67.15
1800.9,297.0,52.0,144.01960784313727,-57.7,76.92,138.59
1800.95,-131.0,-143.0,-298.4901960784314,29.62,14.52,116.54
1801.0,-202.50980392156862,199.0,67.01960784313725,34.73,13.29,115.45
1801.05,74.0,-29.0,-160.49019607843138,79.88,-24.85,11.85
1801.1,-202.50980392156862,150.0,-298.4901960784314,89.02,-69.7,-60.96
1801.15,138.0,-274.0,-190.49019607843138,-2.39,-51.18,65.8
1801.2,-20.0,156.50980392156862,313.01960784313724,24.27,-13.52,110.71
1801.25,74.0,-13.0,298.01960784313724,-45.93,10.3,85.86
1801.3,122.0,-192.0,206.01960784313727,-61.37,10.09,49.07
1801.35,27.0,-209.0,-313.4901960784314,-51.6,11.32,-16.09
1801.4,138.0,-78.0,-298.4901960784314,-43.62,-2.57,-78.39
1801.45,58.0,-143.0,236.01960784313727,-16.57,-22.38,-87.8
1801.5,74.0,-62.0,144.01960784313727,-12.05,-11.21,-35.41
1801.55,-4.0,166.0,52.01960784313726,9.88,16.15,38.68
1801.6,-290.0,101.0,190.01960784313727,39.74,-10.97,-9.72
1801.65,-179.0,68.0,98.01960784313725,0.99,-12.96,-67.22
1801.7,-131.0,-62.0,-206.49019607843138,-22.2,-20.87,-125.53
1801.75,-211.0,-29.0,-252.49019607843138,14.75,-35.96,-67.99
1801.8,-116.0,133.0,-237.49019607843138,6.45,-23.5,-24.59
1801.85,-195.0,35.0,313.01960784313724,17.79,-6.66,14.53
1801.9,-179.0,-29.0,313.01960784313724,28.22,-11.84,-15.32
1801.95,-100.0,-45.0,-313.4901960784314,-6.63,-3.55,-39.61
1802.0,279.01960784313724,-127.0,313.01960784313724,-6.42,16.11,-7.37
1802.05,-86.98039215686275,-290.0,252.01960784313727,75.58,-12.12,61.11
1802.1,88.01960784313725,-176.0,236.01960784313727,69.0,8.03,48.37
1802.15,-6.980392156862745,-127.0,144.01960784313727,-31.44,52.27,8.75
1802.2,-54.98039215686274,-225.0,-298.4901960784314,-28.85,33.72,36.23
1802.25,231.01960784313727,-127.0,67.01960784313725,2.67,10.2,29.61
1802.3,-220.49019607843138,52.0,267.01960784313724,-28.78,22.1,29.44
1802.35,-204.49019607843138,-160.0,-313.4901960784314,1.62,15.73,29.68
1802.4,-108.49019607843137,-13.0,-313.4901960784314,-17.48,8.76,9.49
1802.45,49.509803921568626,52.0,-313.4901960784314,-4.35,-12.79,13.93
1802.5,145.50980392156862,84.0,282.01960784313724,30.78,-17.76,37.8
1802.55,18.50980392156863,35.0,313.01960784313724,-23.15,7.29,-18.08
1802.6,9.019607843137255,-241.0,252.01960784313727,-63.54,18.04,-41.22
1802.65,72.01960784313725,-241.0,-298.4901960784314,-66.79,12.47,-50.67
1802.7,41.01960784313726,-94.0,267.01960784313724,-38.41,8.97,-105.86
1802.75,-117.98039215686275,35.0,282.01960784313724,-67.46,-1.97,-124.45
1802.8,-70.98039215686275,-111.0,-175.49019607843138,-78.73,-43.03,-147.9
1802.85,104.01960784313725,-160.0,24.50980392156863,-112.43,-67.88,-201.13
1802.9,279.01960784313724,-45.0,24.50980392156863,-88.74,-66.9,-255.66
1802.95,-188.49019607843138,117.0,-21.49019607843137,-121.39,-91.54,312.34
1803.0,-45.490196078431374,150.0,-129.49019607843138,-212.11,-55.59,305.83
1803.05,-13.490196078431373,183.0,-21.49019607843137,-181.8,-36.1,322.8
1803.1,-61.490196078431374,199.0,86.50980392156863,-176.73,-31.23,-307.25
1803.15,-252.49019607843138,199.0,-21.49019607843137,-228.88,-7.71,-265.39
1803.2,104.01960784313725,166.0,193.50980392156862,-165.74,-10.69,-185.84
1803.25,-236.49019607843138,150.0,209.50980392156862,-86.08,-32.04,-129.14
1803.3,-236.49019607843138,101.0,132.50980392156862,-44.01,-37.85,-86.51
1803.35,279.01960784313724,-45.0,101.50980392156863,-39.88,-34.98,-49.44
1803.4,-315.4901960784314,68.0,70.50980392156863,-10.13,-44.43,-20.36
1803.45,-124.49019607843137,133.0,9.509803921568627,68.33,-55.87,13.76
1803.5,-93.49019607843137,101.0,-113.49019607843137,129.48,-63.43,47.57
1803.55,-108.49019607843137,117.0,-144.49019607843138,155.69,-21.5,72.1
1803.6,-77.49019607843137,248.0,252.01960784313727,88.95,39.21,126.07
1803.65,-29.49019607843137,215.0,-83.49019607843137,111.87,69.59,157.12
1803.7,-108.49019607843137,232.0,-83.49019607843137,56.19,131.61,166.22
1803.75,-156.49019607843138,232.0,9.509803921568627,10.34,143.93,163.73
1803.8,-236.49019607843138,248.0,255.50980392156862,7.96,129.23,145.95
1803.85,216.01960784313727,264.0,286.5098039215686,11.84,100.5,115.01
1803.9,295.01960784313724,313.0,-249.0,10.2,62.38,76.13
1803.95,311.01960784313724,313.0,-126.0,-2.92,11.88,18.2
1804.0,120.01960784313725,215.0,-141.0,4.04,-25.91,-22.91
1804.05,72.01960784313725,183.0,-172.0,9.39,-67.18,-60.08
1804.1,200.01960784313727,133.0,-233.0,30.43,-102.77,-104.6
1804.15,-299.4901960784314,150.0,270.5098039215686,-5.37,-106.62,-114.44
1804.2,-204.49019607843138,133.0,101.50980392156863,19.54,-110.54,-80.03
1804.25,-204.49019607843138,150.0,-113.49019607843137,15.76,-84.92,-77.16
1804.3,-252.49019607843138,166.0,-206.49019607843138,-59.23,-51.78,-73.8
1804.35,311.01960784313724,183.0,-175.49019607843138,-55.59,-32.88,-57.53
1804.4,216.01960784313727,215.0,-221.49019607843138,-17.83,-21.15,-39.75
1804.45,200.01960784313727,183.0,-236.49019607843138,-19.65,-5.02,-31.28
1804.5,216.01960784313727,264.0,-175.49019607843138,-20.17,5.4,-20.5
1804.55,-220.49019607843138,248.0,-113.49019607843137,2.46,10.06,-2.23
1804.6,-172.49019607843138,232.0,-37.490196078431374,32.07,6.8,20.09
1804.65,-252.49019607843138,215.0,-52.490196078431374,42.05,9.6,41.48
1804.7,-156.49019607843138,199.0,39.509803921568626,32.53,10.13,75.36
1804.75,-45.490196078431374,215.0,101.50980392156863,43.9,-12.86,66.54
1804.8,-29.49019607843137,264.0,224.50980392156862,57.87,-23.39,69.93
1804.85,-45.490196078431374,297.0,163.50980392156862,89.54,-30.29,93.28
1804.9,-77.49019607843137,297.0,255.50980392156862,93.64,-25.39,116.97
1804.95,-77.49019607843137,281.0,286.5098039215686,72.81,-6.8,115.19
1805.0,-140.49019607843138,232.0,-52.490196078431374,34.66,11.07,93.31
1805.05,-315.4901960784314,232.0,-52.490196078431374,3.02,18.91,72.94
1805.1,231.01960784313727,232.0,9.509803921568627,-2.39,12.23,56.63
1805.15,279.01960784313724,199.0,193.50980392156862,0.19,-4.04,27.16
1805.2,-315.4901960784314,281.0,255.50980392156862,8.24,-4.28,-27.99
1805.25,-283.4901960784314,313.0,-295.0,-5.86,0.71,-54.24
1805.3,-283.4901960784314,313.0,-233.0,-22.27,8.24,-73.17
1805.35,-315.4901960784314,313.0,-187.0,-49.78,21.57,-83.67
1805.4,-315.4901960784314,297.0,-156.0,-79.36,26.61,-87.59
1805.45,-220.49019607843138,-280.5098039215686,-187.0,-75.12,25.7,-79.26
1805.5,-220.49019607843138,-296.5098039215686,-203.0,-56.33,16.25,-56.83
1805.55,-236.49019607843138,-312.5098039215686,-279.0,-46.77,11.6,-50.25
1805.6,-188.49019607843138,-312.5098039215686,316.5098039215686,-64.24,14.29,-47.55
1805.65,-220.49019607843138,-280.5098039215686,255.50980392156862,-76.45,11.81,-35.83
1805.7,-267.4901960784314,-280.5098039215686,209.50980392156862,-54.16,-3.97,-38.98
1805.75,-315.4901960784314,297.0,209.50980392156862,-35.12,-22.41,-40.06
1805.8,-283.4901960784314,297.0,224.50980392156862,3.72,-34.87,-29.98
1805.85,-299.4901960784314,297.0,224.50980392156862,25.14,-39.84,-5.62
1805.9,-283.4901960784314,313.0,255.50980392156862,30.11,-33.3,24.92
1805.95,-283.4901960784314,313.0,301.5098039215686,34.56,-27.56,40.78
1806.0,-236.49019607843138,-312.5098039215686,301.5098039215686,44.53,-15.06,37.7
1806.05,-252.49019607843138,-296.5098039215686,270.5098039215686,25.91,6.94,47.74
1806.1,-252.49019607843138,313.0,316.5098039215686,13.7,15.17,64.79
1806.15,-267.4901960784314,-182.50980392156862,224.50980392156862,21.22,8.31,76.51
1806.2,-252.49019607843138,-182.50980392156862,178.50980392156862,26.47,4.81,76.02
1806.25,-124.49019607843137,-198.50980392156862,116.50980392156863,28.64,1.69,59.36
1806.3,-108.49019607843137,-198.50980392156862,116.50980392156863,20.56,3.48,30.77
1806.35,-45.490196078431374,-182.50980392156862,116.50980392156863,0.33,4.88,12.99
1806.4,-29.49019607843137,-214.50980392156862,86.50980392156863,14.15,-7.99,8.65
1806.45,-45.490196078431374,-280.5098039215686,239.50980392156862,10.93,-15.94,2.84
1806.5,-93.49019607843137,-198.50980392156862,286.5098039215686,7.05,-23.5,-8.25
1806.55,-93.49019607843137,-165.50980392156862,-249.0,14.54,-32.28,-15.63
1806.6,-124.49019607843137,-67.50980392156863,-295.0,23.22,-38.76,-16.02
1806.65,-188.49019607843138,-84.50980392156863,301.5098039215686,25.39,-32.35,-13.46
1806.7,-156.49019607843138,-51.509803921568626,-295.0,3.62,-19.16,-12.8
1806.75,-204.49019607843138,-198.50980392156862,-233.0,-2.36,-9.5,-9.93
1806.8,-220.49019607843138,-100.50980392156863,-280.0,-3.06,-0.43,-6.99
1806.85,-204.49019607843138,-247.50980392156862,-295.0,-5.68,5.54,-7.55
1806.9,-156.49019607843138,-67.50980392156863,-295.0,-4.6,3.9,-1.67
1806.95,295.01960784313724,248.0,132.50980392156862,3.69,-0.78,3.68
1807.0,311.01960784313724,-214.50980392156862,132.50980392156862,8.27,-0.89,7.63
1807.05,88.01960784313725,-214.50980392156862,-95.0,-13.38,4.98,17.08
1807.1,311.01960784313724,281.0,286.5098039215686,-4.53,7.99,39.48
1807.15,-267.4901960784314,297.0,-280.0,-22.59,17.09,62.48
1807.2,200.01960784313727,-198.50980392156862,70.50980392156863,-21.19,25.46,63.28
1807.25,88.01960784313725,248.0,255.50980392156862,-31.23,38.9,44.35
1807.3,184.01960784313727,-280.5098039215686,101.50980392156863,-30.85,54.82,23.38
1807.35,231.01960784313727,-263.5098039215686,255.50980392156862,-45.76,71.41,-7.83
1807.4,-140.49019607843138,264.0,162.50980392156862,-85.2,78.59,-39.78
1807.45,97.50980392156863,-312.5098039215686,-203.0,-86.88,70.75,-57.67
1807.5,193.50980392156862,133.0,-79.0,-86.53,48.77,-69.67
1807.55,320.5098039215686,281.0,-49.0,-67.14,26.02,-67.26
1807.6,-172.49019607843138,-165.50980392156862,239.50980392156862,-36.41,11.88,-46.85
1807.65,200.01960784313727,-2.5098039215686274,-160.49019607843138,-38.93,9.18,-21.97
1807.7,247.01960784313727,46.490196078431374,-129.49019607843138,-59.65,9.22,-13.57
1807.75,-61.490196078431374,-84.50980392156863,39.509803921568626,-49.15,9.99,-19.8
1807.8,256.5098039215686,-318.01960784313724,255.50980392156862,-62.56,10.13,-14.2
1807.85,208.50980392156862,84.0,243.0,6.91,7.4,-13.08
1807.9,-267.4901960784314,193.49019607843138,273.0,-61.05,37.29,-39.71
1807.95,-223.47058823529412,-94.0,178.50980392156862,54.4,37.81,-70.51
1808.0,263.01960784313724,237.50980392156862,-117.98039215686275,-8.48,39.95,-24.1
1808.05,-204.49019607843138,-171.01960784313727,286.5098039215686,-69.45,62.56,-41.85
1808.1,231.01960784313727,101.0,-110.0,-47.47,37.53,-20.95
1808.15,88.01960784313725,-214.50980392156862,-249.0,-59.79,22.8,10.92
1808.2,104.01960784313725,-198.50980392156862,-64.0,-56.43,20.38,27.76
1808.25,231.01960784313727,-51.509803921568626,-49.0,-62.66,0.33,35.28
1808.3,152.01960784313727,46.490196078431374,212.0,-79.88,-13.91,31.54
1808.35,311.01960784313724,242.49019607843138,135.0,-42.43,-20.63,7.53
1808.4,247.01960784313727,-35.509803921568626,258.0,-75.47,-40.82,-37.3
1808.45,-13.490196078431373,-182.50980392156862,73.0,-49.19,-24.65,-67.75
1808.5,177.50980392156862,30.49019607843137,89.0,-50.41,-28.29,-73.98
1808.55,193.50980392156862,62.490196078431374,89.0,-10.23,-6.73,-74.5
1808.6,320.5098039215686,160.49019607843138,27.0,-5.05,-36.62,12.11
1808.65,-243.0,-51.509803921568626,27.0,-18.63,-22.41,15.02
1808.7,193.50980392156862,209.49019607843138,-64.0,0.61,0.19,-32.85
1808.75,320.5098039215686,128.49019607843138,-156.0,4.0,51.92,-33.52
1808.8,208.50980392156862,160.49019607843138,-187.0,-6.28,5.75,-11.47
1808.85,320.5098039215686,46.490196078431374,-126.0,-42.96,-43.97,31.36
1808.9,240.50980392156862,30.49019607843137,-141.0,-50.31,-27.59,61.67
1808.95,304.5098039215686,128.49019607843138,-233.0,-79.92,-41.77,29.23
1809.0,272.5098039215686,111.49019607843137,270.5098039215686,-86.08,-21.05,57.79
1809.05,-290.0,307.4901960784314,-203.0,-68.82,-20.87,61.43
1809.1,-13.490196078431373,-73.01960784313725,-295.0,-19.96,3.41,45.78
1809.15,240.50980392156862,-73.01960784313725,-156.0,-7.4,18.95,59.57
1809.2,177.50980392156862,-155.01960784313727,12.0,9.04,24.44,71.23
1809.25,-259.0,-286.01960784313724,-33.0,5.09,42.96,82.88
1809.3,-195.0,111.49019607843137,-64.0,-2.29,64.87,82.22
1809.35,-211.0,111.49019607843137,-33.0,-26.16,81.32,53.2
1809.4,-195.0,95.49019607843137,-141.0,-16.08,98.68,41.72
1809.45,-227.0,95.49019607843137,-187.0,-12.82,119.99,45.47
1809.5,-163.0,144.49019607843138,-187.0,-12.09,145.02,43.61
1809.55,-68.0,79.49019607843137,-141.0,-5.26,138.4,28.77
1809.6,-179.0,242.49019607843138,-141.0,1.1,107.57,0.14
1809.65,-131.0,-285.01960784313724,-80.0,-22.69,77.12,-12.52
1809.7,256.5098039215686,-73.01960784313725,-218.0,-53.84,64.31,-7.69
1809.75,272.5098039215686,-40.01960784313726,-3.0,-62.59,55.84,-6.11
1809.8,320.5098039215686,291.4901960784314,-33.0,-41.8,55.21,-4.5
1809.85,-179.0,46.490196078431374,-33.0,-47.33,75.61,0.77
1809.9,-131.0,-116.50980392156863,-18.0,-50.17,91.26,9.59
1809.95,-147.0,128.49019607843138,-64.0,-52.93,105.78,13.51
1810.0,-36.0,242.49019607843138,-64.0,-39.0,102.11,3.33
1810.05,27.0,-286.01960784313724,-187.0,-8.55,101.65,9.14
1810.1,58.0,-171.01960784313727,-187.0,-1.73,67.39,4.41
1810.15,-4.0,-155.01960784313727,-64.0,8.13,48.66,22.37
1810.2,-52.0,-204.01960784313727,-79.0,12.16,51.74,44.24
1810.25,-163.0,-40.01960784313726,-33.0,16.57,64.83,56.42
1810.3,113.50980392156863,-290.52941176470586,-49.0,48.77,76.38,53.62
1810.35,-147.0,-318.01960784313724,-18.0,63.36,83.7,38.43
1810.4,-259.0,144.49019607843138,58.0,52.62,73.3,20.3
1810.45,-227.0,128.49019607843138,196.0,55.38,56.26,5.43
1810.5,-195.0,79.49019607843137,43.0,46.32,44.71,-13.43
1810.55,-131.0,79.49019607843137,58.0,22.1,52.72,-34.53
1810.6,-275.0,128.49019607843138,-33.0,15.13,84.61,-34.64
1810.65,-243.0,193.49019607843138,-80.0,27.84,125.84,-17.03
1810.7,-131.0,209.49019607843138,-126.0,8.2,126.36,4.31
1810.75,272.5098039215686,-236.01960784313727,-172.0,17.2,95.95,-6.01
1810.8,-290.0,-269.01960784313724,-233.0,-52.16,74.46,-25.54
1810.85,161.50980392156862,-187.01960784313727,-79.0,-54.79,71.94,-31.91
1810.9,81.50980392156863,291.4901960784314,-203.0,-33.19,81.18,-22.11
1810.95,288.5098039215686,128.49019607843138,-156.0,-24.3,89.65,-16.09
1811.0,-243.0,46.490196078431374,-64.0,-39.0,75.12,-9.26
1811.05,-100.0,13.490196078431373,-187.0,-8.55,16.5,12.15
1811.1,27.0,79.49019607843137,-187.0,-1.73,-5.02,14.67
1811.15,90.0,275.4901960784314,-64.0,8.13,-15.62,1.58
1811.2,27.0,-171.01960784313727,-79.0,12.16,-30.67,-13.25
1811.25,-4.0,-138.01960784313727,-33.0,16.57,-44.6,9.0
1811.3,122.0,-89.01960784313725,-49.0,48.77,-78.06,12.11
1811.35,-100.0,24.980392156862745,-18.0,63.36,-71.03,5.6
1811.4,177.50980392156862,89.98039215686275,58.0,52.62,-55.07,11.17
1811.45,-195.0,209.49019607843138,196.0,55.38,-41.42,14.35
1811.5,-259.0,177.49019607843138,43.0,46.32,-31.69,8.02
1811.55,-290.0,242.49019607843138,58.0,22.1,-23.46,-1.67
1811.6,-211.0,95.49019607843137,-33.0,15.13,-20.0,-10.56
1811.65,-179.0,13.490196078431373,-80.0,27.84,-10.3,-10.21
1811.7,-179.0,-35.509803921568626,-126.0,8.2,18.81,7.07
1811.75,-179.0,79.49019607843137,-172.0,17.2,49.96,17.22
1811.8,-259.0,-285.01960784313724,-233.0,-52.16,83.14,8.89
1811.85,-243.0,-155.01960784313727,-79.0,-54.79,60.67,9.7
1811.9,304.5098039215686,-40.01960784313726,-203.0,-33.19,41.94,-14.37
1811.95,65.50980392156863,-286.01960784313724,-156.0,-24.3,42.36,-21.62
1812.0,-243.0,46.490196078431374,-79.0,-30.32,47.37,-21.9
1812.05,-100.0,13.490196078431373,-64.0,-22.62,64.69,-15.46
1812.1,27.0,79.49019607843137,-203.0,-25.56,47.89,-5.13
1812.15,90.0,275.4901960784314,-203.0,-11.04,2.29,6.51
1812.2,27.0,-171.01960784313727,301.5098039215686,3.69,-22.45,15.68
1812.25,-4.0,-138.01960784313727,316.5098039215686,4.0,-38.65,19.36
1812.3,122.0,-89.01960784313725,-233.0,12.61,-60.81,7.98
1812.35,-100.0,24.980392156862745,-141.0,30.99,-76.73,9.42
1812.4,177.50980392156862,89.98039215686275,-49.0,68.23,-88.56,-17.63
1812.45,-195.0,209.49019607843138,89.0,49.33,-70.36,-12.59
1812.5,-259.0,177.49019607843138,166.0,46.25,-49.36,16.38
1812.55,-290.0,242.49019607843138,73.0,35.43,-36.1,18.62
1812.6,-211.0,95.49019607843137,12.0,24.69,-23.39,6.97
1812.65,-179.0,13.490196078431373,-64.0,5.75,-19.47,-9.37
1812.7,-179.0,-35.509803921568626,43.0,-2.99,-10.37,-22.21
1812.75,-179.0,79.49019607843137,-187.0,-5.12,9.15,-13.15
1812.8,-259.0,-285.01960784313724,-187.0,9.92,47.47,9.66
1812.85,-243.0,-155.01960784313727,301.5098039215686,-28.4,75.89,10.92
1812.9,304.5098039215686,-40.01960784313726,-203.0,-43.83,54.26,21.56
1812.95,65.50980392156863,-286.01960784313724,-156.0,-27.45,26.47,-6.32
1813.0,-227.0,30.49019607843137,-156.0,-21.64,16.11,-24.84
1813.05,-243.0,-18.50980392156863,-110.0,-31.55,21.75,-26.31
1813.1,-195.0,62.490196078431374,-33.0,-28.15,31.51,-21.55
1813.15,-84.0,177.49019607843138,-126.0,-17.9,16.53,-9.79
1813.2,27.0,-318.01960784313724,-187.0,6.8,-15.48,-0.3
1813.25,42.0,-220.01960784313727,316.5098039215686,22.59,-63.01,10.15
1813.3,90.0,-286.01960784313724,-218.0,13.45,-71.66,17.75
1813.35,-4.0,-236.01960784313727,-203.0,30.71,-92.69,26.67
1813.4,138.0,-253.01960784313727,-95.0,34.45,-109.14,22.37
1813.45,-100.0,-89.01960784313725,-49.0,36.03,-118.59,32.06
1813.5,240.50980392156862,138.98039215686273,-79.0,78.55,-132.77,-4.43
1813.55,-259.0,307.4901960784314,120.0,55.91,-116.63,10.12
1813.6,-211.0,242.49019607843138,258.0,35.85,-87.62,40.46
1813.65,320.5098039215686,-286.01960784313724,166.0,30.01,-71.2,46.97
1813.7,-179.0,177.49019607843138,58.0,13.07,-52.9,40.22
1813.75,-211.0,13.490196078431373,-49.0,1.03,-45.62,18.03
1813.8,-100.0,-18.50980392156863,73.0,-2.5,-33.23,11.41
1813.85,-195.0,128.49019607843138,-110.0,0.4,-4.42,19.5
1813.9,-243.0,-204.01960784313727,-203.0,-25.77,13.38,41.58
1813.95,-306.0,-258.52941176470586,-279.0,-3.93,-43.13,47.18
1814.0,-195.0,-89.01960784313725,209.50980392156862,-12.23,-74.81,39.69
1814.05,-116.0,307.4901960784314,-172.0,-21.85,-69.63,55.13
1814.1,106.0,209.49019607843138,-49.0,-24.62,-81.63,79.1
1814.15,90.0,-318.01960784313724,-3.0,-23.46,-104.03,104.58
1814.2,-313.5098039215686,-220.01960784313727,-3.0,-28.92,-137.74,128.94
1814.25,-139.50980392156862,-253.01960784313727,-64.0,-56.36,-162.1,137.34
1814.3,-186.50980392156862,193.49019607843138,-156.0,-47.68,-179.35,125.44
1814.35,-91.50980392156863,-286.01960784313724,-64.0,-55.03,-176.62,106.47
1814.4,51.490196078431374,242.49019607843138,119.0,-75.86,-141.41,97.58
1814.45,-43.509803921568626,-171.01960784313727,-246.50980392156862,-46.39,-104.59,77.53
1814.5,-234.50980392156862,-187.01960784313727,320.0,-59.76,-66.2,53.69
1814.55,313.0,-67.50980392156863,273.0,-71.62,-74.0,31.29
1814.6,138.0,-51.509803921568626,104.0,-35.01,-70.96,31.08
1814.65,-84.0,79.49019607843137,289.0,-72.81,-75.86,7.04
1814.7,58.0,281.0,-246.50980392156862,-56.19,-50.83,-0.06
1814.75,-282.5098039215686,-165.50980392156862,43.0,-22.27,13.03,53.48
1814.8,-275.0,166.47058823529412,212.0,15.2,-24.62,28.18
1814.85,242.49019607843138,-253.01960784313727,-141.0,6.84,-29.45,-14.02
1814.9,-107.50980392156863,-182.50980392156862,-218.0,-4.35,-20.17,-20.71
1814.95,131.49019607843138,-247.50980392156862,-141.0,22.31,-52.44,33.53
1815.0,242.49019607843138,-155.01960784313727,-126.0,-52.23,-27.73,-26.66
1815.05,-140.49019607843138,46.490196078431374,-206.49019607843138,-23.53,11.04,3.68
1815.1,226.49019607843138,-122.01960784313725,-249.0,37.6,13.66,-48.25
1815.15,306.4901960784314,-198.50980392156862,-233.0,28.85,40.75,-67.47
1815.2,-170.50980392156862,166.0,-233.0,34.63,44.29,-67.85
1815.25,-305.01960784313724,-204.01960784313727,-49.0,18.49,65.99,-68.27
1815.3,233.0,-84.50980392156863,193.50980392156862,48.1,50.76,-82.13
1815.35,-43.509803921568626,-155.01960784313727,-187.0,36.1,37.43,-74.64
1815.4,201.0,62.490196078431374,-218.0,26.44,23.92,-76.53
1815.45,11.0,79.49019607843137,-249.0,57.38,21.64,-70.34
1815.5,-52.0,193.49019607843138,316.5098039215686,111.31,11.14,-73.28
1815.55,-68.0,160.49019607843138,-233.0,-53.14,4.88,78.61
1815.6,177.50980392156862,40.98039215686274,196.0,-10.65,-36.1,31.68
1815.65,-211.0,-263.5098039215686,-187.0,242.74,-45.69,-32.54
1815.7,-259.0,-198.50980392156862,-279.0,162.1,-52.48,-79.79
1815.75,320.5098039215686,199.0,-233.0,27.14,-91.85,-94.1
1815.8,-211.0,313.0,301.5098039215686,-20.45,-112.82,-88.64
1815.85,-275.0,313.0,255.50980392156862,25.63,-137.25,-106.74
1815.9,-290.0,111.49019607843137,101.50980392156863,-53.28,-130.32,-157.45
1815.95,-267.4901960784314,-302.01960784313724,-6.490196078431373,-32.84,-119.96,-158.85
1816.0,67.49019607843137,57.98039215686274,9.509803921568627,-88.49,-69.17,-110.13
1816.05,19.49019607843137,-258.52941176470586,129.01960784313727,-160.7,-22.87,-62.95
1816.1,-75.50980392156863,155.98039215686273,9.509803921568627,-87.06,-68.93,26.81
1816.15,-139.50980392156862,-307.52941176470586,55.509803921568626,37.88,-131.54,131.15
1816.2,-123.50980392156863,-160.52941176470588,270.5098039215686,79.99,-139.35,231.56
1816.25,35.490196078431374,269.98039215686276,-310.0,83.56,-95.95,302.4
1816.3,-154.50980392156862,-61.529411764705884,316.5098039215686,46.98,-57.24,-299.23
1816.35,-170.50980392156862,68.47058823529412,270.5098039215686,47.12,-41.98,-275.36
1816.4,-75.50980392156863,101.47058823529412,-187.0,69.91,-33.19,-264.09
1816.45,-59.509803921568626,-61.529411764705884,-264.0,8.66,-15.73,-300.77
1816.5,-27.50980392156863,302.98039215686276,27.0,21.5,-42.89,312.48
1816.55,35.490196078431374,138.98039215686273,-95.0,-12.23,-84.15,247.73
1816.6,67.49019607843137,275.4901960784314,-64.0,-32.98,-129.72,164.29
1816.65,115.49019607843137,-149.50980392156862,73.0,-9.6,-155.9,89.5
1816.7,-273.01960784313724,133.0,120.0,14.64,-164.41,12.32
1816.75,-114.01960784313725,-241.0,-49.0,-5.05,-146.38,-43.91
1816.8,12.980392156862745,90.50980392156863,-280.0,2.78,-93.39,-66.21
1816.85,-161.01960784313727,74.50980392156863,-6.490196078431373,-70.82,-4.7,-61.34
1816.9,-59.509803921568626,-203.49019607843138,313.01960784313724,50.34,45.97,-40.62
1816.95,-266.5098039215686,-149.50980392156862,-178.98039215686273,44.04,9.57,-9.86
1817.0,-202.50980392156862,215.0,-98.49019607843137,52.79,-1.9,2.8
1817.05,51.490196078431374,35.0,-283.4901960784314,16.6,-9.95,6.86
1817.1,-43.509803921568626,-160.0,-313.4901960784314,12.61,6.31,13.16
1817.15,67.49019607843137,-209.0,298.01960784313724,-37.74,11.42,15.3
1817.2,226.49019607843138,270.5098039215686,-283.4901960784314,-12.65,7.19,32.41
1817.25,147.49019607843138,183.0,147.50980392156862,-46.49,19.89,34.2
1817.3,115.49019607843137,-111.0,24.50980392156863,-75.33,39.21,46.13
1817.35,274.4901960784314,-192.0,24.50980392156863,-86.36,37.39,50.65
1817.4,67.49019607843137,-127.0,163.50980392156862,69.45,35.19,49.53
1817.45,-75.50980392156863,3.0,-113.49019607843137,74.14,49.57,49.77
1817.5,-298.5098039215686,-160.0,101.50980392156863,137.6,53.67,43.19
1817.55,186.0,-62.0,-252.49019607843138,3.97,81.53,-0.51
1817.6,-4.0,-23.49019607843137,-67.49019607843137,6.66,93.22,-35.02
1817.65,27.0,9.509803921568627,-283.4901960784314,-84.36,63.75,-111.6
1817.7,-131.0,9.509803921568627,-203.0,-96.19,-7.54,-137.5
1817.75,-147.0,-274.0,255.50980392156862,-34.77,-84.43,-71.28
1817.8,-68.0,-231.50980392156862,116.50980392156863,-100.04,-76.59,10.33
1817.85,-250.50980392156862,111.49019607843137,39.509803921568626,-92.73,-8.52,85.44
1817.9,-218.50980392156862,291.4901960784314,252.01960784313727,-16.25,6.31,82.22
1817.95,51.490196078431374,-296.5098039215686,-113.49019607843137,62.91,-18.32,64.72
1818.0,-68.0,264.0,316.5098039215686,193.98,-39.21,79.1
1818.05,42.0,52.0,286.5098039215686,191.81,-31.55,53.38
1818.1,27.0,-209.0,-21.49019607843137,144.56,-33.23,40.53
1818.15,-4.0,41.509803921568626,-67.49019607843137,126.61,-54.12,66.43
1818.2,201.0,-225.0,-6.490196078431373,269.44,-51.04,72.56
1818.25,217.0,270.5098039215686,-298.4901960784314,171.16,-43.9,94.15
1818.3,217.0,292.01960784313724,-52.490196078431374,105.89,-53.04,103.78
1818.35,281.0,292.01960784313724,224.50980392156862,63.08,-52.06,113.61
1818.4,-43.509803921568626,-72.49019607843137,-126.0,61.75,-70.19,60.73
1818.45,313.0,-268.4901960784314,-79.0,-159.79,-64.52,-23.93
1818.5,-91.50980392156863,150.52941176470588,-79.0,-292.89,-84.5,-74.64
1818.55,-75.50980392156863,-1.9803921568627452,58.0,-129.69,-91.33,14.28
1818.6,-27.50980392156863,101.0,-230.50980392156862,-4.6,-21.4,16.73
1818.65,-43.509803921568626,117.0,282.01960784313724,-262.23,25.77,-148.88
1818.7,-139.50980392156862,-209.47058823529412,-52.490196078431374,-279.94,3.72,-175.37
1818.75,-170.50980392156862,178.01960784313727,-156.0,-131.09,8.13,-71.98
1818.8,-59.509803921568626,291.4901960784314,178.50980392156862,54.79,45.23,24.78
1818.85,-43.509803921568626,-8.019607843137255,278.52941176470586,120.9,33.54,-12.38
1818.9,-91.50980392156863,35.0,-9.980392156862745,24.34,-39.77,-68.38
1818.95,-75.50980392156863,-258.0,-129.49019607843138,-10.58,-22.59,-65.89
1819.0,-11.509803921568627,-225.0,-98.49019607843137,32.11,3.02,-62.04
1819.05,-250.50980392156862,47.01960784313726,175.01960784313727,-25.18,-3.93,-71.0
1819.1,-266.5098039215686,-285.4901960784314,-67.49019607843137,-28.22,10.86,-48.01
1819.15,106.0,-225.0,-160.49019607843138,-11.18,30.81,-13.67
1819.2,-68.0,-280.5098039215686,-313.4901960784314,7.29,41.94,-7.86
1819.25,-116.0,111.49019607843137,298.01960784313724,3.2,36.41,6.83
1819.3,-68.0,111.49019607843137,313.01960784313724,42.64,29.13,35.11
1819.35,-116.0,-18.50980392156863,-175.49019607843138,59.37,21.01,51.59
1819.4,256.5098039215686,133.0,175.01960784313727,6.38,53.25,39.48
1819.45,193.50980392156862,-312.5098039215686,221.01960784313727,3.44,59.2,39.83
1819.5,161.50980392156862,-18.50980392156863,313.01960784313724,12.05,53.84,47.71
1819.55,34.509803921568626,-116.50980392156863,9.509803921568627,-29.38,45.37,34.97
1819.6,311.01960784313724,313.0,24.50980392156863,-11.0,27.66,39.2
1819.65,263.01960784313724,-133.50980392156862,101.50980392156863,-19.75,21.19,39.66
1819.7,-236.49019607843138,-182.50980392156862,147.50980392156862,-10.55,12.12,45.33
1819.75,231.01960784313727,297.0,-83.49019607843137,70.33,17.55,49.46
1819.8,279.01960784313724,248.0,39.509803921568626,114.08,16.29,42.49
1819.85,-283.4901960784314,313.0,55.509803921568626,243.33,20.49,-8.04
1819.9,-283.4901960784314,-280.5098039215686,-221.49019607843138,71.52,-4.53,-33.76
1819.95,-172.49019607843138,-296.5098039215686,286.5098039215686,204.59,-25.98,-132.5
1820.0,-156.49019607843138,-312.5098039215686,101.50980392156863,-16.5,-57.52,-254.23
1820.05,-204.49019607843138,248.0,209.50980392156862,-143.02,-108.3,322.28
1820.1,-220.49019607843138,166.0,-187.0,-74.77,-126.68,300.86
1820.15,200.01960784313727,150.0,286.5098039215686,-19.3,-126.33,303.52
1820.2,231.01960784313727,248.0,24.50980392156863,73.48,-152.05,-308.65
1820.25,-45.490196078431374,101.0,-67.49019607843137,137.18,-178.9,-251.08
1820.3,-61.490196078431374,84.0,-298.4901960784314,49.08,-205.71,-219.96
1820.35,-140.49019607843138,-13.0,206.01960784313727,-87.86,-178.37,-174.88
1820.4,-45.490196078431374,101.0,113.01960784313725,-112.47,-143.9,-145.48
1820.45,2.5098039215686274,150.0,190.01960784313727,0.15,-147.36,-104.15
1820.5,-29.49019607843137,215.0,-147.98039215686273,-27.91,-151.32,-100.3
1820.55,34.509803921568626,199.0,144.01960784313727,-38.09,-129.41,-117.17
1820.6,65.50980392156863,183.0,267.01960784313724,59.51,-74.35,-73.98
1820.65,2.5098039215686274,248.0,236.01960784313727,89.37,-27.14,-35.65
1820.7,-93.49019607843137,264.0,-175.49019607843138,12.79,32.77,-4.22
1820.75,-220.49019607843138,-312.5098039215686,-83.49019607843137,-49.54,62.45,42.25
1820.8,263.01960784313724,-247.50980392156862,132.50980392156862,-61.26,56.96,83.86
1820.85,295.01960784313724,-198.50980392156862,239.50980392156862,-32.28,31.51,103.18
1820.9,-299.4901960784314,-280.5098039215686,316.5098039215686,2.5,5.96,96.64
1820.95,263.01960784313724,-2.5098039215686274,-295.0,34.07,-13.14,71.51
1821.0,-299.4901960784314,95.49019607843137,-233.0,39.95,-14.57,38.43
1821.05,41.01960784313726,-236.01960784313727,-295.0,29.45,-18.21,8.82
1821.1,57.01960784313726,166.0,239.50980392156862,12.93,-16.04,-41.15
1821.15,295.01960784313724,258.4901960784314,163.50980392156862,22.03,-15.38,-23.12
1821.2,129.50980392156862,79.49019607843137,-113.49019607843137,16.08,-21.26,8.3
1821.25,-140.49019607843138,-182.50980392156862,-67.49019607843137,30.25,-15.55,8.65
1821.3,216.01960784313727,62.490196078431374,-129.49019607843138,-14.71,2.81,-1.39
1821.35,-299.4901960784314,62.490196078431374,-113.49019607843137,-14.61,4.81,-5.45
1821.4,-140.49019607843138,-280.5098039215686,-83.49019607843137,-13.73,-0.01,-8.56
1821.45,161.50980392156862,-67.50980392156863,39.509803921568626,2.53,-1.87,-5.83
1821.5,256.5098039215686,-247.50980392156862,39.509803921568626,-12.23,-2.46,0.28
1821.55,-275.0,35.0,101.50980392156863,-63.26,-2.67,14.14
1821.6,18.50980392156863,204.98039215686273,116.50980392156863,-106.62,4.95,13.62
1821.65,-308.98039215686276,-133.50980392156862,209.50980392156862,-126.26,8.34,-5.2
1821.7,-172.49019607843138,150.0,316.5098039215686,-108.41,12.61,-34.39
1821.75,-315.4901960784314,-133.50980392156862,255.50980392156862,-131.47,18.11,-56.13
1821.8,253.52941176470588,-198.50980392156862,-218.0,-209.42,19.61,-31.35
1821.85,81.50980392156863,199.0,-233.0,-88.11,20.42,-8.53
1821.9,-276.98039215686276,183.0,-295.0,-63.01,32.95,-4.43
1821.95,120.01960784313725,-198.50980392156862,-64.0,-11.42,-20.87,43.93
1822.0,72.01960784313725,13.490196078431373,-3.0,111.52,11.0,25.52
1822.05,285.52941176470586,150.0,73.0,-58.57,8.24,17.89
1822.1,311.01960784313724,-2.5098039215686274,273.0,-65.88,12.54,15.19
1822.15,-77.49019607843137,-2.5098039215686274,-64.0,-60.67,8.34,17.01
1822.2,288.5098039215686,-100.50980392156863,-156.0,-51.22,-1.48,5.67
1822.25,272.5098039215686,-51.509803921568626,-126.0,-4.91,-23.04,25.87
1822.3,256.5098039215686,177.49019607843138,-233.0,7.54,-26.58,12.08
1822.35,-290.0,46.490196078431374,-33.0,8.83,-17.79,-30.75
1822.4,145.50980392156862,111.49019607843137,-172.0,44.08,-14.4,-61.97
1822.45,-275.0,-100.50980392156863,-64.0,12.86,-12.51,-106.81
1822.5,145.50980392156862,-35.509803921568626,-156.0,115.83,-33.4,-105.41
1822.55,193.50980392156862,-51.509803921568626,-33.0,102.88,-14.33,-16.72
1822.6,224.50980392156862,95.49019607843137,-203.0,-58.01,25.42,-21.93
1822.65,272.5098039215686,226.49019607843138,-203.0,-48.28,8.59,-66.7
1822.7,-259.0,258.4901960784314,-156.0,-11.84,-7.68,-31.77
1822.75,-116.0,-138.01960784313727,-203.0,-64.52,5.26,52.01
1822.8,-163.0,-24.019607843137255,316.5098039215686,-18.18,-26.26,54.88
1822.85,-275.0,-89.01960784313725,-141.0,-64.34,10.13,101.96
1822.9,320.5098039215686,-122.01960784313725,27.0,-21.92,5.16,111.9
1822.95,-147.0,-302.01960784313724,-18.0,-5.72,24.93,113.23
1823.0,-4.0,46.490196078431374,89.0,-18.6,48.17,95.59
1823.05,-100.0,79.49019607843137,73.0,-19.4,40.61,75.53
1823.1,-100.0,46.490196078431374,73.0,-18.35,51.6,49.21
1823.15,-116.0,160.49019607843138,-18.0,-29.9,85.1,22.33
1823.2,-20.0,-236.01960784313727,-295.0,-35.5,99.62,8.58
1823.25,42.0,-187.01960784313727,-295.0,-18.67,93.46,3.68
1823.3,42.0,-286.01960784313724,-203.0,-23.88,71.27,6.37
1823.35,27.0,275.4901960784314,-279.0,-27.1,80.79,6.55
1823.4,-36.0,242.49019607843138,-233.0,-20.91,81.7,-0.58
1823.45,-131.0,-318.01960784313724,-233.0,-39.42,99.2,0.32
1823.5,-195.0,-138.01960784313727,-233.0,-58.43,103.61,-0.23
1823.55,240.50980392156862,-155.01960784313727,-156.0,-68.33,121.15,-1.04
1823.6,-243.0,128.49019607843138,-233.0,-78.45,127.66,4.2
1823.65,-211.0,-51.509803921568626,-187.0,-94.09,121.5,18.9
1823.7,-195.0,13.490196078431373,-279.0,-121.01,125.38,41.02
1823.75,-36.0,95.49019607843137,-249.0,-68.19,125.21,53.31
1823.8,58.0,177.49019607843138,-295.0,-19.19,120.9,34.2
1823.85,74.0,-286.01960784313724,286.5098039215686,11.53,90.21,18.62
1823.9,74.0,-236.01960784313727,286.5098039215686,20.98,61.51,14.81
1823.95,27.0,-236.01960784313727,-310.0,28.29,51.71,12.85
1824.0,-4.0,46.490196078431374,89.0,15.66,67.21,1.68
1824.05,-100.0,79.49019607843137,73.0,0.92,78.45,-13.57
1824.1,-100.0,46.490196078431374,73.0,-20.14,71.8,-24.49
1824.15,-116.0,160.49019607843138,-18.0,3.3,63.4,-20.04
1824.2,-20.0,-236.01960784313727,-295.0,7.05,57.52,-11.29
1824.25,42.0,-187.01960784313727,-295.0,-1.17,46.25,-5.66
1824.3,42.0,-286.01960784313724,-203.0,6.35,35.33,-8.42
1824.35,27.0,275.4901960784314,-279.0,20.87,33.33,-9.05
1824.4,-36.0,242.49019607843138,-233.0,15.94,51.04,-7.9
1824.45,-131.0,-318.01960784313724,-233.0,-4.32,70.47,-3.07
1824.5,-195.0,-138.01960784313727,-233.0,-19.44,52.79,20.9
1824.55,240.50980392156862,-155.01960784313727,-156.0,-13.56,38.41,10.4
1824.6,-243.0,128.49019607843138,-233.0,-22.17,32.6,-7.37
1824.65,-211.0,-51.509803921568626,-187.0,-29.76,40.02,-15.84
1824.7,-195.0,13.490196078431373,-279.0,-26.54,43.1,-18.47
1824.75,-36.0,95.49019607843137,-249.0,-22.17,30.88,-15.53
1824.8,58.0,177.49019607843138,-295.0,-4.95,-4.84,1.65
1824.85,74.0,-286.01960784313724,286.5098039215686,3.16,-33.89,23.31
1824.9,74.0,-236.01960784313727,286.5098039215686,3.37,-40.82,33.95
1824.95,27.0,-236.01960784313727,-310.0,13.87,-44.08,19.6
1825.0,-163.0,-236.01960784313727,-249.0,-0.96,-51.74,-2.44
1825.05,-163.0,40.98039215686274,-218.0,31.76,-86.46,0.84
1825.1,-243.0,-40.01960784313726,-79.0,33.86,-98.08,-10.24
1825.15,-290.0,242.49019607843138,-33.0,29.34,-89.02,-12.38
1825.2,272.5098039215686,128.49019607843138,73.0,18.32,-72.57,4.94
1825.25,-290.0,226.49019607843138,73.0,13.77,-51.01,15.33
1825.3,-116.0,209.49019607843138,12.0,1.66,-41.49,10.29
1825.35,-52.0,226.49019607843138,27.0,6.28,-42.4,4.87
1825.4,58.0,193.49019607843138,-110.0,24.09,-32.81,10.47
1825.45,122.0,226.49019607843138,-126.0,23.39,-7.68,12.43
1825.5,249.0,307.4901960784314,-156.0,-16.92,22.48,-2.93
1825.55,122.0,-122.01960784313725,-172.0,1.55,-9.5,13.76
1825.6,233.0,-204.01960784313727,-279.0,8.52,-9.6,-7.13
1825.65,233.0,111.49019607843137,-280.0,-10.69,-3.27,-20.74
1825.7,281.0,13.490196078431373,-172.0,-18.95,3.83,-16.16
1825.75,-107.50980392156863,160.49019607843138,-233.0,-6.03,4.77,-9.82
1825.8,-298.5098039215686,128.49019607843138,-295.0,1.66,-1.45,-6.25
1825.85,-250.50980392156862,128.49019607843138,270.5098039215686,7.71,-0.92,3.68
1825.9,-154.50980392156862,209.49019607843138,-310.0,-4.49,8.17,15.37
1825.95,-34.01960784313726,193.49019607843138,-264.0,-18.98,26.68,16.1
1826.0,297.0,-302.01960784313724,270.5098039215686,-14.61,35.96,-2.47
1826.05,83.49019607843137,-106.01960784313725,-233.0,-3.97,12.61,7.14
1826.1,-289.01960784313724,57.98039215686274,-172.0,12.93,-25.11,24.78
1826.15,-11.509803921568627,-40.01960784313726,-95.0,32.46,-25.81,42.95
1826.2,-154.50980392156862,-24.019607843137255,-172.0,32.39,-4.04,69.34
1826.25,-273.01960784313724,307.4901960784314,-79.0,32.14,16.04,101.71
1826.3,-107.50980392156863,-318.01960784313724,-49.0,54.96,9.01,121.42
1826.35,65.50980392156863,-187.01960784313727,255.50980392156862,76.35,9.22,125.3
1826.4,226.49019607843138,275.4901960784314,-141.0,79.88,22.03,119.11
1826.45,163.49019607843138,-187.01960784313727,-64.0,114.64,31.37,119.67
1826.5,35.490196078431374,307.4901960784314,-126.0,121.85,40.05,98.63
1826.55,-123.50980392156863,-84.50980392156863,-249.0,98.92,42.82,80.36
1826.6,-170.50980392156862,111.49019607843137,-233.0,73.65,60.77,63.32
1826.65,226.49019607843138,313.0,86.50980392156863,9.57,72.67,39.34
1826.7,-27.50980392156863,-214.50980392156862,286.5098039215686,17.76,44.25,23.84
1826.75,-11.509803921568627,248.0,55.509803921568626,-10.62,35.71,-11.33
1826.8,83.49019607843137,-116.50980392156863,24.50980392156863,-34.24,34.0,-20.95
1826.85,67.49019607843137,133.0,239.50980392156862,-18.18,63.85,-50.42
1826.9,51.490196078431374,52.0,-190.49019607843138,74.88,21.33,37.07
1826.95,-27.50980392156863,-286.01960784313724,236.01960784313727,62.38,-16.92,-15.7
1827.0,-170.50980392156862,-247.50980392156862,-6.490196078431373,59.62,8.66,-76.36
1827.05,4.490196078431373,-100.50980392156863,-218.0,93.74,20.31,-10.52
1827.1,67.49019607843137,281.0,70.50980392156863,78.1,1.69,-19.83
1827.15,-91.50980392156863,183.0,-52.490196078431374,29.55,11.88,-77.55
1827.2,-75.50980392156863,-182.50980392156862,132.50980392156862,6.21,39.25,-4.22
1827.25,131.49019607843138,-116.50980392156863,-283.4901960784314,38.37,-38.37,26.43
1827.3,4.490196078431373,-247.50980392156862,101.50980392156863,6.63,19.37,-26.45
1827.35,-75.50980392156863,-165.50980392156862,316.5098039215686,-4.35,19.93,-15.74
1827.4,-75.50980392156863,313.0,-298.4901960784314,-0.68,6.42,-15.6
1827.45,35.490196078431374,-214.50980392156862,-280.0,39.95,7.85,-7.23
1827.5,-202.50980392156862,297.0,224.50980392156862,49.15,-15.66,-13.22
1827.55,-59.509803921568626,-116.50980392156863,147.50980392156862,130.81,-37.74,-15.91
1827.6,-59.509803921568626,-182.50980392156862,116.50980392156863,56.01,-36.62,-2.96
1827.65,-75.50980392156863,-133.50980392156862,-129.49019607843138,10.44,-2.99,-11.19
1827.7,-139.50980392156862,-100.50980392156863,39.509803921568626,-12.02,38.02,-14.58
1827.75,-91.50980392156863,-280.5098039215686,-113.49019607843137,-35.99,35.12,-2.75
1827.8,-154.50980392156862,-312.5098039215686,-144.49019607843138,-31.2,2.71,14.14
1827.85,-59.509803921568626,-296.5098039215686,193.50980392156862,-46.04,-8.59,27.41
1827.9,-59.509803921568626,-214.50980392156862,209.50980392156862,1.48,-19.89,20.34
1827.95,-59.509803921568626,-231.50980392156862,193.50980392156862,31.62,-13.38,-2.19
1828.0,-170.50980392156862,-280.5098039215686,-98.49019607843137,23.85,-19.4,7.04
1828.05,-186.50980392156862,62.490196078431374,162.50980392156862,3.41,-2.22,-13.95
1828.1,-218.50980392156862,-100.50980392156863,193.50980392156862,8.69,17.58,-22.53
1828.15,-266.5098039215686,89.98039215686275,-252.49019607843138,-24.93,27.77,-11.26
1828.2,-313.5098039215686,242.49019607843138,-113.49019607843137,-13.94,2.88,0.32
1828.25,-313.5098039215686,62.490196078431374,255.50980392156862,-17.83,-5.09,-10.87
1828.3,-20.0,-149.50980392156862,-264.0,12.82,-14.05,-16.82
1828.35,58.0,269.98039215686276,101.50980392156863,30.85,-22.55,-23.47
1828.4,-61.490196078431374,-312.5098039215686,39.509803921568626,-6.63,-38.06,-16.82
1828.45,272.5098039215686,-247.50980392156862,116.50980392156863,2.08,-18.53,-28.09
1828.5,-179.0,303.5098039215686,-221.49019607843138,-13.73,-4.6,-25.61
1828.55,-195.0,3.0,24.50980392156863,-2.32,-15.9,-18.61
1828.6,-211.0,-143.0,39.509803921568626,-9.81,-25.63,-10.07
1828.65,97.50980392156863,166.0,193.50980392156862,12.79,-28.22,-11.64
1828.7,168.01960784313727,-302.01960784313724,24.50980392156863,-35.19,0.43,-31.84
1828.75,-315.4901960784314,144.49019607843138,-129.49019607843138,-20.8,24.93,-43.98
1828.8,25.019607843137255,-302.01960784313724,-298.4901960784314,-28.5,26.82,-48.32
1828.85,120.01960784313725,46.490196078431374,-190.49019607843138,-16.46,41.66,-44.12
1828.9,-308.98039215686276,-100.50980392156863,-221.49019607843138,31.16,49.85,-61.9
1828.95,200.01960784313727,-84.50980392156863,-252.49019607843138,55.59,69.91,-90.43
1829.0,-45.490196078431374,46.490196078431374,-283.4901960784314,52.37,58.08,-103.1
1829.05,-93.49019607843137,-2.5098039215686274,-144.49019607843138,30.32,50.83,-100.19
1829.1,200.01960784313727,95.49019607843137,-221.49019607843138,27.94,38.02,-107.58
1829.15,-86.98039215686275,-116.50980392156863,-175.49019607843138,23.88,41.45,-113.07
1829.2,-229.98039215686273,-263.5098039215686,-144.49019607843138,17.13,32.81,-134.88
1829.25,-6.980392156862745,166.0,-6.490196078431373,-30.64,9.71,-122.84
1829.3,295.01960784313724,-45.0,147.50980392156862,289.46,-41.52,-31.66
1829.35,-29.49019607843137,-160.0,209.50980392156862,-87.02,13.52,133.39
1829.4,208.50980392156862,-274.0,178.50980392156862,-24.65,71.06,65.28
1829.45,-259.0,286.5098039215686,147.50980392156862,21.47,4.32,7.42
1829.5,-147.0,286.5098039215686,9.509803921568627,75.86,-50.94,-91.55
1829.55,-84.0,286.5098039215686,-129.49019607843138,-21.85,-113.69,-184.61
1829.6,-84.0,-290.0,-313.4901960784314,-46.63,-143.62,-295.32
1829.65,-211.0,-274.0,129.01960784313727,-27.49,-149.01,326.2
1829.7,-147.0,-209.0,190.01960784313727,-55.7,-171.02,-314.25
1829.75,-290.0,-143.0,-267.4901960784314,95.21,-176.2,-279.15
1829.8,272.5098039215686,-127.0,-83.49019607843137,142.67,-178.06,-205.82
1829.85,240.50980392156862,-94.0,39.509803921568626,-3.79,-58.25,-114.44
1829.9,240.50980392156862,-45.0,101.50980392156863,-76.31,39.42,2.14
1829.95,208.50980392156862,101.0,55.509803921568626,40.16,71.41,97.72
1830.0,113.50980392156863,150.0,-98.49019607843137,170.08,93.6,131.78
1830.05,-77.49019607843137,-296.5098039215686,282.01960784313724,238.99,137.6,151.27
1830.1,-172.49019607843138,297.0,236.01960784313727,232.87,184.99,158.97
1830.15,-267.4901960784314,-312.5098039215686,36.01960784313726,180.51,226.36,146.41
1830.2,-13.490196078431373,-296.5098039215686,-24.980392156862745,124.05,215.61,131.5
1830.25,288.5098039215686,3.0,67.01960784313725,67.91,188.03,106.51
1830.3,-84.0,-280.5098039215686,236.01960784313727,42.68,146.84,89.88
1830.35,-195.0,-214.50980392156862,-240.98039215686273,36.55,104.59,69.9
1830.4,97.50980392156863,3.0,-21.49019607843137,17.93,64.62,47.39
1830.45,-267.4901960784314,13.490196078431373,-18.0,7.78,27.31,31.61
1830.5,-315.4901960784314,-2.5098039215686274,270.5098039215686,-19.02,5.86,22.26
1830.55,2.5098039215686274,-84.50980392156863,9.509803921568627,3.2,-8.48,1.3
1830.6,-93.49019607843137,-280.5098039215686,70.50980392156863,-30.74,-19.86,-19.13
1830.65,-236.49019607843138,-165.50980392156862,178.50980392156862,22.24,-23.71,5.32
1830.7,-140.49019607843138,-214.50980392156862,86.50980392156863,-24.86,-16.46,-23.02
1830.75,-77.49019607843137,-280.5098039215686,70.50980392156863,-65.57,-14.4,-36.21
1830.8,-172.49019607843138,-198.50980392156862,116.50980392156863,-94.23,-25.35,-52.87
1830.85,-204.49019607843138,-214.50980392156862,86.50980392156863,-105.05,-50.66,-60.85
1830.9,-156.49019607843138,-247.50980392156862,9.509803921568627,-95.39,-96.19,-61.97
1830.95,-299.4901960784314,-296.5098039215686,116.50980392156863,-63.82,-133.15,-58.3
1831.0,136.01960784313727,46.490196078431374,39.509803921568626,-40.93,-141.83,-44.3
1831.05,-204.49019607843138,183.0,-187.0,-40.79,-132.21,-26.48
1831.1,-29.49019607843137,117.0,270.5098039215686,-41.94,-94.09,-10.07
1831.15,-299.4901960784314,-296.5098039215686,-6.490196078431373,-100.04,-37.04,5.01
1831.2,-283.4901960784314,166.0,101.50980392156863,-110.02,-12.05,-5.34
1831.25,-61.490196078431374,166.0,147.50980392156862,-65.57,-2.57,17.89
1831.3,18.50980392156863,133.0,101.50980392156863,104.07,20.91,48.83
1831.35,-13.490196078431373,84.0,70.50980392156863,121.18,-19.16,83.65
1831.4,2.5098039215686274,183.0,-83.49019607843137,16.85,-108.83,81.24
1831.45,-124.49019607843137,52.0,-83.49019607843137,0.54,-99.2,61.36
1831.5,-93.49019607843137,166.0,-267.4901960784314,11.7,-65.25,38.12
1831.55,18.50980392156863,133.0,67.01960784313725,2.71,-36.34,7.88
1831.6,-61.490196078431374,226.49019607843138,163.50980392156862,-13.0,-21.92,-0.44
1831.65,-101.98039215686275,-143.0,316.5098039215686,-10.93,-6.45,-11.64
1831.7,272.5098039215686,-35.509803921568626,-36.490196078431374,-12.96,-6.17,-16.89
1831.75,34.509803921568626,-116.50980392156863,224.50980392156862,-15.34,-11.21,-18.68
1831.8,-315.4901960784314,-165.50980392156862,163.50980392156862,-36.45,0.36,-27.46
1831.85,-45.490196078431374,-149.50980392156862,209.50980392156862,-23.78,14.92,-40.83
1831.9,49.509803921568626,-231.50980392156862,209.50980392156862,10.86,4.81,-52.77
1831.95,-61.490196078431374,-214.50980392156862,101.50980392156863,-18.42,26.09,-24.42
1832.0,-29.49019607843137,-182.50980392156862,116.50980392156863,-15.83,14.08,-10.8
1832.05,-77.49019607843137,-149.50980392156862,132.50980392156862,-8.13,20.31,-10.84
1832.1,-204.49019607843138,-231.50980392156862,147.50980392156862,-4.74,43.69,-19.55
1832.15,-315.4901960784314,-67.50980392156863,55.509803921568626,-4.46,40.93,-13.71
1832.2,-315.4901960784314,-84.50980392156863,-83.49019607843137,1.97,22.9,-4.43
1832.25,-61.490196078431374,35.0,-218.0,8.24,1.62,8.3
1832.3,-124.49019607843137,281.0,316.5098039215686,13.45,-11.04,24.08
1832.35,200.01960784313727,264.0,-175.49019607843138,21.54,-10.41,33.43
1832.4,-188.49019607843138,248.0,24.50980392156863,27.24,-7.5,45.54
1832.45,2.5098039215686274,117.0,116.50980392156863,28.78,31.51,41.3
1832.5,49.509803921568626,150.0,55.509803921568626,81.98,60.14,37.21
1832.55,-61.490196078431374,248.0,9.509803921568627,96.75,-30.6,93.91
1832.6,-140.49019607843138,150.0,-67.49019607843137,-22.59,-61.16,73.4
1832.65,18.50980392156863,297.0,-83.49019607843137,75.02,-80.9,72.28
1832.7,2.5098039215686274,-247.50980392156862,55.509803921568626,62.1,-66.72,45.82
1832.75,-220.49019607843138,-67.50980392156863,132.50980392156862,31.44,-42.68,34.2
1832.8,34.509803921568626,160.49019607843138,193.50980392156862,24.97,-38.2,24.5
1832.85,-13.490196078431373,13.490196078431373,301.5098039215686,23.5,-31.72,14.18
1832.9,18.50980392156863,46.490196078431374,316.5098039215686,25.77,-26.44,13.65
1832.95,-45.490196078431374,46.490196078431374,209.50980392156862,27.66,-27.0,14.77
1833.0,-77.49019607843137,30.49019607843137,132.50980392156862,105.15,-26.93,2.49
1833.05,-45.490196078431374,30.49019607843137,70.50980392156863,81.7,-19.68,-12.69
1833.1,-45.490196078431374,46.490196078431374,-218.0,86.95,-1.69,-24.49
1833.15,-13.490196078431373,13.490196078431373,24.50980392156863,83.0,21.99,-8.7
1833.2,2.5098039215686274,-51.509803921568626,147.50980392156862,75.58,1.73,-5.41
1833.25,34.509803921568626,-18.50980392156863,209.50980392156862,70.89,4.07,-5.52
1833.3,-13.490196078431373,-18.50980392156863,116.50980392156863,63.29,23.88,2.03
1833.35,-29.49019607843137,-67.50980392156863,193.50980392156862,45.37,10.58,20.34
1833.4,-45.490196078431374,-67.50980392156863,255.50980392156862,46.11,-8.17,30.14
1833.45,-93.49019607843137,-149.50980392156862,132.50980392156862,43.8,-28.47,41.62
1833.5,-108.49019607843137,-182.50980392156862,147.50980392156862,44.74,-47.72,64.12
1833.55,-108.49019607843137,-198.50980392156862,224.50980392156862,50.52,-51.01,80.78
1833.6,-252.49019607843138,264.0,178.50980392156862,20.1,-54.58,101.57
1833.65,216.01960784313727,150.0,286.5098039215686,28.78,-73.83,109.9
1833.7,200.01960784313727,215.0,-83.49019607843137,49.26,-77.61,120.37
1833.75,-188.49019607843138,166.0,-36.490196078431374,53.84,-86.67,128.38
1833.8,-29.49019607843137,183.0,178.50980392156862,46.42,-89.82,112.81
1833.85,-124.49019607843137,183.0,209.50980392156862,42.75,-83.8,89.71
1833.9,-188.49019607843138,232.0,86.50980392156863,39.7,-70.43,71.96
1833.95,-124.49019607843137,183.0,116.50980392156863,33.37,-51.67,49.32
1834.0,-108.49019607843137,166.0,178.50980392156862,30.32,-46.25,44.45
1834.05,-172.49019607843138,133.0,39.509803921568626,37.15,-57.38,35.21
1834.1,-108.49019607843137,215.0,24.50980392156863,25.18,-40.82,24.12
1834.15,-140.49019607843138,183.0,132.50980392156862,31.16,-41.31,21.63
1834.2,-172.49019607843138,166.0,-21.49019607843137,36.55,-41.8,24.54
1834.25,-172.49019607843138,183.0,-52.490196078431374,42.29,-35.01,24.96
1834.3,311.01960784313724,199.0,-6.490196078431373,-17.93,-37.81,28.11
1834.35,104.01960784313725,-116.50980392156863,193.50980392156862,18.77,-38.86,24.61
1834.4,-61.490196078431374,-312.5098039215686,-67.49019607843137,39.11,-25.56,16.0
1834.45,177.50980392156862,-247.50980392156862,316.5098039215686,6.49,-19.05,4.31
1834.5,-236.49019607843138,-312.5098039215686,-187.0,6.52,-21.54,-2.51
1834.55,-267.4901960784314,-67.50980392156863,9.509803921568627,4.11,-22.52,1.16
1834.6,-77.49019607843137,-182.50980392156862,147.50980392156862,3.2,-28.5,11.73
1834.65,-61.490196078431374,-280.5098039215686,147.50980392156862,3.37,-2.74,7.32
1834.7,-108.49019607843137,-263.5098039215686,116.50980392156863,-2.25,7.36,1.09
1834.75,-140.49019607843138,-198.50980392156862,132.50980392156862,-3.09,-2.95,2.35
1834.8,-124.49019607843137,-231.50980392156862,86.50980392156863,-5.02,-17.58,10.26
1834.85,-77.49019607843137,-247.50980392156862,101.50980392156863,-13.94,-26.44,26.01
1834.9,-77.49019607843137,-214.50980392156862,193.50980392156862,-31.58,-31.86,31.05
1834.95,-156.49019607843138,-296.5098039215686,132.50980392156862,-18.04,-31.93,31.36
1835.0,-172.49019607843138,-280.5098039215686,24.50980392156863,-11.46,25.14,28.25
1835.05,279.01960784313724,-263.5098039215686,163.50980392156862,3.72,44.5,27.69
1835.1,216.01960784313727,-2.5098039215686274,-129.49019607843138,-1.97,3.23,27.72
1835.15,-188.49019607843138,166.0,286.5098039215686,-31.51,-16.01,29.54
1835.2,-77.49019607843137,35.0,-3.0,-10.93,21.43,30.91
1835.25,311.01960784313724,313.0,-52.490196078431374,5.65,31.13,49.14
1835.3,295.01960784313724,313.0,-144.49019607843138,1.41,3.97,41.55
1835.35,-61.490196078431374,133.0,255.50980392156862,8.52,-8.97,36.19
1835.4,-29.49019607843137,52.0,193.50980392156862,2.95,-11.6,30.98
1835.45,-172.49019607843138,199.0,70.50980392156863,3.41,-14.05,16.66
1835.5,-124.49019607843137,166.0,70.50980392156863,22.13,-17.44,7.46
1835.55,-93.49019607843137,133.0,86.50980392156863,-15.27,-14.29,4.13
1835.6,-188.49019607843138,264.0,163.50980392156862,7.5,28.15,2.03
1835.65,-188.49019607843138,117.0,-98.49019607843137,41.03,59.23,4.76
1835.7,-29.49019607843137,183.0,282.01960784313724,68.51,41.1,2.84
1835.75,-29.49019607843137,117.0,-83.49019607843137,41.31,-27.77,-2.93
1835.8,184.01960784313727,-182.50980392156862,239.50980392156862,-47.3,-14.5,-8.67
1835.85,-101.98039215686275,-312.5098039215686,101.50980392156863,30.39,0.19,-16.02
1835.9,208.50980392156862,297.0,-221.49019607843138,39.0,-22.2,-25.85
1835.95,177.50980392156862,-214.50980392156862,-156.0,9.08,-33.33,-40.94
1836.0,-172.49019607843138,-280.5098039215686,24.50980392156863,-11.46,25.14,-54.13
1836.05,279.01960784313724,-263.5098039215686,163.50980392156862,3.72,44.5,-20.95
1836.1,216.01960784313727,-2.5098039215686274,-129.49019607843138,-1.97,3.23,-8.25
1836.15,-188.49019607843138,166.0,286.5098039215686,-31.51,-16.01,-9.51
1836.2,-77.49019607843137,35.0,-3.0,-10.93,21.43,-16.61
1836.25,311.01960784313724,313.0,-52.490196078431374,5.65,31.13,-7.2
1836.3,295.01960784313724,313.0,-144.49019607843138,1.41,3.97,-0.76
1836.35,-61.490196078431374,133.0,255.50980392156862,8.52,-8.97,0.53
1836.4,-29.49019607843137,52.0,193.50980392156862,2.95,-11.6,7.11
1836.45,-172.49019607843138,199.0,70.50980392156863,3.41,-14.05,14.07
1836.5,-124.49019607843137,166.0,70.50980392156863,22.13,-17.44,21.49
1836.55,-93.49019607843137,133.0,86.50980392156863,-15.27,-14.29,29.3
1836.6,-188.49019607843138,264.0,163.50980392156862,7.5,28.15,24.08
1836.65,-188.49019607843138,117.0,-98.49019607843137,41.03,59.23,16.49
1836.7,-29.49019607843137,183.0,282.01960784313724,68.51,41.1,19.15
1836.75,-29.49019607843137,117.0,-83.49019607843137,41.31,-27.77,50.86
1836.8,184.01960784313727,-182.50980392156862,239.50980392156862,-47.3,-14.5,38.15
1836.85,-101.98039215686275,-312.5098039215686,101.50980392156863,30.39,0.19,32.73
1836.9,208.50980392156862,297.0,-221.49019607843138,39.0,-22.2,31.4
1836.95,177.50980392156862,-214.50980392156862,-156.0,9.08,-33.33,23.21
1837.0,311.01960784313724,297.0,-279.0,-0.92,-20.03,5.04
1837.05,-283.4901960784314,-67.50980392156863,24.50980392156863,17.2,-12.47,2.94
1837.1,-13.490196078431373,-149.50980392156862,24.50980392156863,12.4,-17.69,6.48
1837.15,-61.490196078431374,-312.5098039215686,163.50980392156862,10.44,-14.61,10.89
1837.2,-140.49019607843138,-231.50980392156862,116.50980392156863,17.58,-11.46,5.46
1837.25,-93.49019607843137,-214.50980392156862,86.50980392156863,-1.66,1.41,-6.88
1837.3,-172.49019607843138,-247.50980392156862,116.50980392156863,-20.28,5.12,-20.22
1837.35,-93.49019607843137,-198.50980392156862,209.50980392156862,-34.73,-0.78,-27.25
1837.4,-140.49019607843138,-247.50980392156862,193.50980392156862,-46.18,1.03,-25.15
1837.45,-124.49019607843137,-247.50980392156862,39.509803921568626,-29.2,22.87,-28.09
1837.5,-29.49019607843137,-231.50980392156862,-129.49019607843138,-7.19,16.08,-57.95
1837.55,-172.49019607843138,199.0,178.50980392156862,-21.99,43.24,-42.41
1837.6,152.01960784313727,-100.50980392156863,-113.49019607843137,-18.63,22.03,-19.06
1837.65,-236.49019607843138,-280.5098039215686,101.50980392156863,-12.82,-22.62,-21.79
1837.7,2.5098039215686274,19.0,-141.0,-11.84,-38.79,-25.89
1837.75,-61.490196078431374,101.0,-187.0,-13.98,1.69,-25.5
1837.8,152.01960784313727,281.0,-206.49019607843138,-9.71,14.68,-14.79
1837.85,231.01960784313727,232.0,-98.49019607843137,-4.81,4.04,-10.73
1837.9,-93.49019607843137,84.0,209.50980392156862,7.96,-7.36,-10.31
1837.95,-45.490196078431374,68.0,193.50980392156862,7.61,-14.01,-5.55
1838.0,-252.49019607843138,199.0,209.50980392156862,-1.41,-0.08,0.77
1838.05,-315.4901960784314,215.0,116.50980392156863,-15.8,2.15,-1.53
1838.1,-252.49019607843138,133.0,270.5098039215686,-29.97,5.33,-9.3
1838.15,-220.49019607843138,117.0,-310.0,-33.58,16.74,-10.59
1838.2,-252.49019607843138,133.0,162.50980392156862,-32.04,30.5,-8.6
1838.25,-220.49019607843138,52.0,55.509803921568626,-17.79,41.21,-6.74
1838.3,-156.49019607843138,68.0,-6.490196078431373,-0.47,48.17,-5.62
1838.35,-156.49019607843138,52.0,-36.490196078431374,22.41,25.6,18.66
1838.4,-267.4901960784314,84.0,24.50980392156863,-25.28,19.65,16.52
1838.45,168.01960784313727,-263.5098039215686,39.509803921568626,-16.5,33.05,8.44
1838.5,-93.49019607843137,248.0,-21.49019607843137,-5.02,15.69,8.58
1838.55,129.50980392156862,183.0,239.50980392156862,-33.02,11.28,6.62
1838.6,-220.49019607843138,-280.5098039215686,286.5098039215686,-31.9,7.75,5.15
1838.65,-188.49019607843138,-182.50980392156862,70.50980392156863,-37.57,7.78,-8.56
1838.7,-93.49019607843137,-263.5098039215686,147.50980392156862,-35.85,15.34,-20.39
1838.75,-108.49019607843137,-198.50980392156862,39.509803921568626,-45.97,21.22,-25.01
1838.8,-124.49019607843137,-214.50980392156862,70.50980392156863,-39.7,21.43,-30.72
1838.85,-93.49019607843137,-214.50980392156862,70.50980392156863,-46.04,18.32,-36.21
1838.9,-108.49019607843137,-247.50980392156862,86.50980392156863,-49.68,17.93,-36.56
1838.95,-124.49019607843137,-214.50980392156862,70.50980392156863,-54.44,19.47,-37.86
1839.0,-61.490196078431374,-231.50980392156862,70.50980392156863,-61.4,13.1,-40.83
1839.05,-77.49019607843137,-214.50980392156862,86.50980392156863,-60.21,5.82,-40.83
1839.1,-77.49019607843137,-214.50980392156862,70.50980392156863,-49.12,6.31,-35.02
1839.15,-45.490196078431374,-214.50980392156862,-83.49019607843137,-35.89,9.32,-32.71
1839.2,2.5098039215686274,-280.5098039215686,-67.49019607843137,-27.07,15.13,-29.81
1839.25,-13.490196078431373,-296.5098039215686,-67.49019607843137,-14.75,18.28,-23.4
1839.3,-13.490196078431373,-296.5098039215686,-83.49019607843137,-8.45,14.78,-18.08
1839.35,-13.490196078431373,297.0,-52.490196078431374,3.48,12.89,-11.96
1839.4,18.50980392156863,313.0,-83.49019607843137,27.42,6.45,-10.87
1839.45,2.5098039215686274,313.0,-129.49019607843138,46.35,-37.43,-8.67
1839.5,-140.49019607843138,297.0,101.50980392156863,11.49,-37.81,24.85
1839.55,-299.4901960784314,-198.50980392156862,9.509803921568627,28.01,-46.98,36.4
1839.6,-77.49019607843137,248.0,-6.490196078431373,57.31,-44.18,34.16
1839.65,49.509803921568626,133.0,132.50980392156862,90.87,-33.23,31.36
1839.7,34.509803921568626,166.0,39.509803921568626,84.08,-32.77,45.22
1839.75,-315.4901960784314,-280.5098039215686,9.509803921568627,95.46,-35.29,67.06
1839.8,-315.4901960784314,-231.50980392156862,-129.49019607843138,104.56,-56.01,76.23
1839.85,-45.490196078431374,297.0,116.50980392156863,117.4,-70.4,82.95
1839.9,49.509803921568626,-280.5098039215686,178.50980392156862,127.62,-76.24,88.73
1839.95,-77.49019607843137,-214.50980392156862,147.50980392156862,113.41,-76.42,114.17
1840.0,-45.490196078431374,-165.50980392156862,209.50980392156862,92.06,-74.77,108.92
1840.05,2.5098039215686274,128.49019607843138,-279.0,62.77,-72.92,99.23
1840.1,-220.49019607843138,-100.50980392156863,316.5098039215686,100.46,-98.4,62.97
1840.15,49.509803921568626,-2.5098039215686274,-264.0,91.75,-56.64,41.86
1840.2,-315.4901960784314,-51.509803921568626,-129.49019607843138,90.94,-53.56,41.83
1840.25,-124.49019607843137,144.49019607843138,86.50980392156863,88.42,-76.24,36.02
1840.3,49.509803921568626,-165.50980392156862,-264.0,74.74,-70.5,26.95
1840.35,-61.490196078431374,-165.50980392156862,301.5098039215686,60.63,-54.51,11.66
1840.4,-61.490196078431374,-100.50980392156863,286.5098039215686,56.68,-34.21,0.49
1840.45,-61.490196078431374,-2.5098039215686274,193.50980392156862,26.09,-6.35,-15.42
1840.5,-188.49019607843138,-100.50980392156863,224.50980392156862,44.71,12.09,-30.93
1840.55,-220.49019607843138,-84.50980392156863,101.50980392156863,42.4,15.45,-32.26
1840.6,295.01960784313724,-51.509803921568626,39.509803921568626,26.23,10.44,-19.8
1840.65,136.01960784313727,-214.50980392156862,301.5098039215686,-3.13,15.41,-30.23
1840.7,216.01960784313727,117.0,-95.0,-43.73,21.4,-74.08
1840.75,-299.4901960784314,3.0,-203.0,-92.41,15.94,-99.95
1840.8,-267.4901960784314,52.0,-203.0,-117.4,8.73,-121.58
1840.85,-156.49019607843138,-127.0,-126.0,-170.32,19.58,-129.35
1840.9,-172.49019607843138,-62.0,147.50980392156862,-155.55,17.72,-125.64
1840.95,-172.49019607843138,52.0,132.50980392156862,-175.15,53.18,-122.84
1841.0,-11.509803921568627,-94.0,39.509803921568626,-85.97,46.7,-53.82
1841.05,35.490196078431374,232.0,39.509803921568626,-20.98,39.04,16.56
1841.1,-43.509803921568626,-247.50980392156862,-175.49019607843138,4.81,31.23,56.98
1841.15,35.490196078431374,-263.5098039215686,-52.490196078431374,33.37,38.41,79.42
1841.2,19.49019607843137,-67.50980392156863,-221.49019607843138,65.43,93.15,158.69
1841.25,115.49019607843137,95.49019607843137,252.01960784313727,57.76,144.18,209.69
1841.3,242.49019607843138,128.49019607843138,175.01960784313727,38.27,194.05,255.15
1841.35,274.4901960784314,177.49019607843138,21.019607843137255,-20.31,234.97,289.63
1841.4,-241.01960784313727,275.4901960784314,5.019607843137255,-92.38,234.23,-325.24
1841.45,274.4901960784314,-269.01960784313724,113.01960784313725,-191.6,152.79,-275.15
1841.5,226.49019607843138,-286.01960784313724,-175.49019607843138,-174.7,69.59,-276.24
1841.55,178.49019607843138,242.49019607843138,39.509803921568626,-109.35,7.33,-311.62
1841.6,-43.509803921568626,62.490196078431374,163.50980392156862,-159.58,-47.33,236.32
1841.65,-218.50980392156862,297.0,-156.0,-102.07,-96.44,147.39
1841.7,-202.50980392156862,248.0,-95.0,-43.55,-110.16,51.42
1841.75,-186.50980392156862,3.0,-279.0,-41.94,-96.16,-15.25
1841.8,-107.50980392156863,-160.0,86.50980392156863,-59.06,-30.92,-67.4
1841.85,-36.0,-13.0,-6.490196078431373,-5.68,21.85,-51.58
1841.9,272.5098039215686,-165.50980392156862,252.01960784313727,9.64,24.44,-36.42
1841.95,-290.0,-280.5098039215686,9.509803921568627,8.06,18.84,-25.71
1842.0,288.5098039215686,248.0,86.50980392156863,23.78,8.94,-15.07
1842.05,304.5098039215686,166.0,147.50980392156862,-24.65,8.76,-13.81
1842.1,320.5098039215686,3.0,101.50980392156863,-9.11,7.61,-7.79
1842.15,145.50980392156862,264.0,-36.490196078431374,-3.27,9.39,4.2
1842.2,81.50980392156863,297.0,9.509803921568627,0.64,1.69,31.29
1842.25,81.50980392156863,313.0,9.509803921568627,-2.99,-2.25,53.9
1842.3,18.50980392156863,264.0,-98.49019607843137,37.32,13.49,63.63
1842.35,2.5098039215686274,232.0,-113.49019607843137,52.27,7.64,67.34
1842.4,-188.49019607843138,215.0,270.5098039215686,96.3,19.19,40.78
1842.45,311.01960784313724,3.0,147.50980392156862,16.95,4.6,48.27
1842.5,-220.49019607843138,-45.0,286.5098039215686,117.82,5.82,9.59
1842.55,-267.4901960784314,-45.0,70.50980392156863,42.64,6.7,-58.3
1842.6,-236.49019607843138,-72.49019607843137,301.5098039215686,-5.12,-45.09,-166.27
1842.65,-188.49019607843138,-7.490196078431373,-33.0,117.44,-155.38,-231.27
1842.7,-204.49019607843138,123.50980392156863,-156.0,-258.38,-253.2,-168.9
1842.75,-283.4901960784314,133.0,-67.49019607843137,-135.98,323.58,-65.47
1842.8,311.01960784313724,128.49019607843138,98.01960784313725,16.43,-219.57,23.98
1842.85,216.01960784313727,-301.4901960784314,-144.49019607843138,6.42,-148.9,-7.97
1842.9,72.01960784313725,188.50980392156862,94.52941176470588,-14.36,-77.64,-2.54
1842.95,-54.98039215686274,-72.49019607843137,21.019607843137255,-30.71,-50.48,-19.8
1843.0,231.01960784313727,117.0,144.01960784313727,-88.95,-46.53,-33.8
1843.05,-220.49019607843138,166.0,-175.49019607843138,-222.44,-49.19,-60.36
1843.1,-283.4901960784314,68.0,116.50980392156863,-283.34,-36.2,-106.6
1843.15,-77.49019607843137,35.0,132.50980392156862,-297.69,-16.64,-143.98
1843.2,-77.49019607843137,133.0,193.50980392156862,-294.43,-31.55,-153.36
1843.25,-124.49019607843137,232.0,-264.0,-173.4,-74.32,-174.74
1843.3,-188.49019607843138,-312.5098039215686,286.5098039215686,-21.82,-125.77,-164.31
1843.35,-220.49019607843138,-263.5098039215686,24.50980392156863,52.93,-162.94,-139.88
1843.4,216.01960784313727,-312.5098039215686,-252.49019607843138,-54.16,-176.62,-86.09
1843.45,-22.980392156862745,-296.5098039215686,236.01960784313727,-50.97,-152.93,-41.29
1843.5,152.01960784313727,-263.5098039215686,190.01960784313727,13.24,-87.97,-12.9
1843.55,9.019607843137255,248.0,98.01960784313725,51.78,-14.08,14.53
1843.6,9.019607843137255,101.0,206.01960784313727,81.35,42.75,14.21
1843.65,311.01960784313724,166.0,-206.49019607843138,-16.18,98.01,-5.52
1843.7,-283.4901960784314,215.0,24.50980392156863,-138.68,128.67,-27.67
1843.75,-236.49019607843138,264.0,209.50980392156862,-172.74,124.44,-15.11
1843.8,-220.49019607843138,232.0,316.5098039215686,-90.87,79.6,-5.06
1843.85,-172.49019607843138,150.0,-218.0,-58.46,41.07,-4.05
1843.9,-299.4901960784314,166.0,-49.0,-113.83,13.07,-50.81
1843.95,-299.4901960784314,166.0,43.0,-35.78,-28.08,-46.26
1844.0,200.01960784313727,133.0,-79.0,32.84,-47.02,-53.75
1844.05,-252.49019607843138,166.0,301.5098039215686,3.62,-37.74,-67.22
1844.1,-283.4901960784314,35.0,209.50980392156862,-42.12,-33.44,-80.45
1844.15,-236.49019607843138,-78.0,270.5098039215686,-50.45,-30.64,-96.1
1844.2,-108.49019607843137,19.0,193.50980392156862,-40.89,-28.92,-96.76
1844.25,-124.49019607843137,183.0,116.50980392156863,-7.08,-34.73,-82.03
1844.3,-172.49019607843138,-296.5098039215686,70.50980392156863,28.89,-40.44,-58.02
1844.35,-124.49019607843137,-165.50980392156862,-36.490196078431374,22.62,-24.37,-31.14
1844.4,-267.4901960784314,-263.5098039215686,-52.490196078431374,41.07,17.3,14.56
1844.45,120.01960784313725,248.0,-144.49019607843138,71.62,52.27,72.28
1844.5,-86.98039215686275,-280.5098039215686,-221.49019607843138,63.71,104.45,103.5
1844.55,88.01960784313725,-165.50980392156862,55.509803921568626,-25.81,142.22,128.31
1844.6,-6.980392156862745,297.0,178.50980392156862,-59.72,131.23,147.91
1844.65,104.01960784313725,150.0,301.5098039215686,-31.69,106.73,134.54
1844.7,311.01960784313724,150.0,-264.0,5.51,86.57,107.45
1844.75,-236.49019607843138,133.0,-218.0,19.47,60.88,76.34
1844.8,-220.49019607843138,133.0,-110.0,12.93,20.52,41.93
1844.85,-77.49019607843137,117.0,-49.0,10.37,-30.11,-0.44
1844.9,-45.490196078431374,150.0,-110.0,42.57,-70.47,-50.18
1844.95,-220.49019607843138,166.0,-187.0,22.87,-82.4,-88.05
1845.0,295.01960784313724,183.0,193.50980392156862,58.22,-111.56,-90.25
1845.05,184.01960784313727,199.0,55.509803921568626,47.47,-110.96,-76.01
1845.1,-267.4901960784314,183.0,-190.49019607843138,-55.98,-68.54,-81.68
1845.15,216.01960784313727,-94.0,-83.49019607843137,-97.1,-31.06,-99.07
1845.2,-204.49019607843138,3.0,9.509803921568627,-93.01,-13.56,-109.54
1845.25,-45.490196078431374,166.0,39.509803921568626,-53.0,-19.54,-101.59
1845.3,2.5098039215686274,313.0,-6.490196078431373,31.69,-38.41,-72.68
1845.35,49.509803921568626,313.0,-67.49019607843137,55.66,-22.94,-26.8
1845.4,-45.490196078431374,313.0,-83.49019607843137,-8.06,0.05,3.15
1845.45,-299.4901960784314,313.0,39.509803921568626,1.69,24.65,58.56
1845.5,88.01960784313725,313.0,-129.49019607843138,74.18,43.8,118.41
1845.55,216.01960784313727,-165.50980392156862,-6.490196078431373,77.54,75.05,156.42
1845.6,104.01960784313725,-214.50980392156862,116.50980392156863,7.92,95.7,185.5
1845.65,-6.980392156862745,264.0,178.50980392156862,-1.83,89.86,179.1
1845.7,247.01960784313727,166.0,286.5098039215686,-5.89,76.31,149.03
1845.75,-283.4901960784314,166.0,-310.0,1.1,66.83,104.34
1845.8,-267.4901960784314,183.0,-233.0,2.25,43.38,51.94
1845.85,-156.49019607843138,166.0,-187.0,15.38,-8.73,-14.9
1845.9,-45.490196078431374,183.0,-156.0,37.64,-47.23,-54.97
1845.95,-140.49019607843138,281.0,-172.0,43.8,-80.06,-116.85
1846.0,-188.49019607843138,-263.5098039215686,-279.0,63.75,-98.12,-117.31
1846.05,152.01960784313727,-182.50980392156862,162.50980392156862,91.57,-110.61,-81.15
1846.1,-108.49019607843137,-84.50980392156863,-98.49019607843137,-43.34,-59.69,-57.46
1846.15,-204.49019607843138,281.0,-175.49019607843138,-112.15,-26.19,-56.16
1846.2,-45.490196078431374,199.0,-98.49019607843137,-87.72,-14.78,-61.66
1846.25,193.50980392156862,248.0,-6.490196078431373,-31.41,-16.08,-66.07
1846.3,-306.0,-165.50980392156862,132.50980392156862,11.7,-24.62,-56.65
1846.35,-259.0,79.49019607843137,55.509803921568626,23.32,-20.1,-29.25
1846.4,320.5098039215686,307.4901960784314,86.50980392156863,-4.21,-4.04,-15.14
1846.45,208.50980392156862,-318.01960784313724,55.509803921568626,-17.44,7.19,11.48
1846.5,65.50980392156863,-220.01960784313727,116.50980392156863,50.45,-3.72,64.86
1846.55,-108.49019607843137,-40.01960784313726,86.50980392156863,99.17,14.61,90.76
1846.6,18.50980392156863,-138.01960784313727,193.50980392156862,51.39,57.94,111.76
1846.65,113.50980392156863,226.49019607843138,301.5098039215686,-1.2,72.64,134.33
1846.7,145.50980392156862,-253.01960784313727,301.5098039215686,-20.77,68.3,142.31
1846.75,256.5098039215686,79.49019607843137,-249.0,-11.84,56.43,127.86
1846.8,288.5098039215686,128.49019607843138,-249.0,4.81,37.88,90.13
1846.85,-275.0,128.49019607843138,-280.0,19.19,1.66,28.56
1846.9,-163.0,193.49019607843138,286.5098039215686,21.15,-22.52,1.96
1846.95,-163.0,160.49019607843138,86.50980392156863,13.14,-48.38,-32.26
1847.0,-163.0,79.49019607843137,55.509803921568626,8.31,-39.11,-40.24
1847.05,106.0,128.49019607843138,-175.49019607843138,64.55,-47.33,6.79
1847.1,-52.0,-116.50980392156863,-144.49019607843138,-6.35,-21.85,29.16
1847.15,-4.0,-2.5098039215686274,-113.49019607843137,-44.81,2.11,33.81
1847.2,42.0,-280.5098039215686,86.50980392156863,-50.31,5.54,39.38
1847.25,-20.0,-214.50980392156862,9.509803921568627,-46.88,-12.89,51.59
1847.3,-68.0,-280.5098039215686,55.509803921568626,24.55,-40.12,70.25
1847.35,-100.0,-263.5098039215686,-129.49019607843138,56.57,-49.75,102.34
1847.4,272.5098039215686,166.0,-283.4901960784314,44.53,-55.0,121.94
1847.45,42.0,-100.50980392156863,298.01960784313724,55.77,-72.29,109.87
1847.5,-250.50980392156862,291.4901960784314,221.01960784313727,92.66,-82.96,120.47
1847.55,90.0,-280.5098039215686,-144.49019607843138,96.75,-75.12,150.19
1847.6,-306.0,-209.0,-283.4901960784314,77.99,-56.85,138.92
1847.65,-4.0,-182.50980392156862,-24.980392156862745,95.28,-32.25,133.6
1847.7,281.0,-296.5098039215686,55.509803921568626,46.56,-7.5,126.95
1847.75,-282.5098039215686,-133.50980392156862,-113.49019607843137,-4.53,6.45,122.75
1847.8,217.0,281.0,-313.4901960784314,9.39,6.31,113.61
1847.85,-313.5098039215686,-100.50980392156863,-175.49019607843138,23.85,12.19,86.63
1847.9,313.0,-296.5098039215686,-206.49019607843138,16.01,4.67,49.63
1847.95,249.0,-51.509803921568626,-129.49019607843138,67.6,-11.6,43.47
1848.0,-298.5098039215686,-116.50980392156863,-160.49019607843138,83.87,-23.25,58.56
1848.05,281.0,-165.50980392156862,-175.49019607843138,82.51,-23.18,47.15
1848.1,-250.50980392156862,-84.50980392156863,-175.49019607843138,126.26,-28.36,56.35
1848.15,-234.50980392156862,-133.50980392156862,-113.49019607843137,89.86,-42.36,75.74
1848.2,-250.50980392156862,-116.50980392156863,-129.49019607843138,82.09,-52.69,91.25
1848.25,297.0,-100.50980392156863,-206.49019607843138,57.69,-50.27,109.94
1848.3,-313.5098039215686,-198.50980392156862,-6.490196078431373,25.32,-38.72,125.41
1848.35,-250.50980392156862,-133.50980392156862,-98.49019607843137,-59.13,-14.96,110.67
1848.4,-313.5098039215686,-133.50980392156862,-67.49019607843137,-87.13,5.79,126.25
1848.45,-313.5098039215686,-133.50980392156862,-83.49019607843137,-7.85,-20.38,160.34
1848.5,-282.5098039215686,-133.50980392156862,-113.49019607843137,-33.86,-43.76,143.68
1848.55,-282.5098039215686,-67.50980392156863,-160.49019607843138,-100.85,7.75,90.44
1848.6,-298.5098039215686,-149.50980392156862,-160.49019607843138,18.18,30.71,61.92
1848.65,-298.5098039215686,-116.50980392156863,-83.49019607843137,-56.75,18.7,57.05
1848.7,313.0,-133.50980392156862,-52.490196078431374,-81.67,12.16,44.94
1848.75,313.0,-165.50980392156862,-52.490196078431374,-57.94,12.58,21.18
1848.8,-298.5098039215686,-116.50980392156863,-144.49019607843138,-32.98,-4.91,34.58
1848.85,-298.5098039215686,-100.50980392156863,-113.49019607843137,-18.28,-0.29,30.07
1848.9,-298.5098039215686,-67.50980392156863,-113.49019607843137,-9.01,-6.59,26.11
1848.95,-298.5098039215686,-149.50980392156862,-129.49019607843138,-13.98,-0.05,17.64
1849.0,-313.5098039215686,-116.50980392156863,-160.49019607843138,-14.33,1.73,8.72
1849.05,-313.5098039215686,-165.50980392156862,-175.49019607843138,-7.54,-1.48,5.95
1849.1,-298.5098039215686,-84.50980392156863,-175.49019607843138,-10.37,-1.55,2.94
1849.15,-282.5098039215686,-133.50980392156862,-113.49019607843137,-9.74,0.61,3.4
1849.2,-298.5098039215686,-116.50980392156863,-129.49019607843138,-11.11,9.18,1.65
1849.25,297.0,-100.50980392156863,-206.49019607843138,-8.8,3.06,-1.28
1849.3,-298.5098039215686,-198.50980392156862,-6.490196078431373,-7.78,0.85,1.68
1849.35,-282.5098039215686,-133.50980392156862,-98.49019607843137,2.46,-5.82,3.26
1849.4,-298.5098039215686,-133.50980392156862,-67.49019607843137,3.58,-6.91,1.86
1849.45,-282.5098039215686,-133.50980392156862,-83.49019607843137,-0.78,-5.65,-1.88
1849.5,-282.5098039215686,-133.50980392156862,-113.49019607843137,-4.74,-2.57,-0.76
1849.55,-298.5098039215686,-67.50980392156863,-160.49019607843138,2.01,-3.65,-0.79
1849.6,-298.5098039215686,-149.50980392156862,-160.49019607843138,2.22,-3.65,0.18
1849.65,-298.5098039215686,-116.50980392156863,-83.49019607843137,0.01,-2.88,1.79
1849.7,-313.5098039215686,-133.50980392156862,-52.490196078431374,-1.45,-3.58,1.37
1849.75,-266.5098039215686,-165.50980392156862,-52.490196078431374,-3.9,-3.2,3.01
1849.8,-282.5098039215686,-116.50980392156863,-144.49019607843138,-3.16,-1.34,2.45
1849.85,-282.5098039215686,-100.50980392156863,-113.49019607843137,-0.05,-0.43,2.03
1849.9,-298.5098039215686,-67.50980392156863,-113.49019607843137,-0.5,1.41,2.49
1849.95,-298.5098039215686,-149.50980392156862,-129.49019607843138,0.43,0.12,5.57
1850.0,-250.50980392156862,-133.50980392156862,-83.49019607843137,-1.55,0.4,3.75
1850.05,-282.5098039215686,-165.50980392156862,-83.49019607843137,-4.7,0.57,2.59
1850.1,-266.5098039215686,-133.50980392156862,-67.49019607843137,-1.83,0.33,2.91
1850.15,-282.5098039215686,-100.50980392156863,-98.49019607843137,-2.74,1.06,3.47
1850.2,-282.5098039215686,-100.50980392156863,-144.49019607843138,-3.79,-0.22,3.4
1850.25,-282.5098039215686,-116.50980392156863,-83.49019607843137,1.73,-2.25,3.36
1850.3,-282.5098039215686,-116.50980392156863,-98.49019607843137,-0.75,-1.38,1.86
1850.35,-282.5098039215686,-100.50980392156863,-83.49019607843137,-0.08,-1.83,1.89
1850.4,-266.5098039215686,-84.50980392156863,-83.49019607843137,-2.01,0.12,1.89
1850.45,-266.5098039215686,-84.50980392156863,-113.49019607843137,-0.05,-1.06,1.68
1850.5,-298.5098039215686,-133.50980392156862,-67.49019607843137,-0.15,-0.12,2.7
1850.55,-250.50980392156862,-100.50980392156863,-113.49019607843137,-4.49,0.68,4.83
1850.6,-250.50980392156862,-67.50980392156863,-83.49019607843137,-0.19,0.64,2.59
1850.65,-298.5098039215686,-133.50980392156862,-67.49019607843137,-3.48,-0.22,3.64
1850.7,-282.5098039215686,-100.50980392156863,-83.49019607843137,-2.04,0.33,2.28
1850.75,-282.5098039215686,-133.50980392156862,-83.49019607843137,-3.41,-0.78,2.45
1850.8,-298.5098039215686,-84.50980392156863,-113.49019607843137,1.55,-0.4,1.54
1850.85,-282.5098039215686,-116.50980392156863,-98.49019607843137,-2.92,1.13,2.73
1850.9,-266.5098039215686,-67.50980392156863,-67.49019607843137,-1.73,0.4,1.12
1850.95,-298.5098039215686,-116.50980392156863,-83.49019607843137,3.02,-1.34,1.44
1851.0,-298.5098039215686,-100.50980392156863,-83.49019607843137,-0.4,-0.71,1.54
1851.05,-266.5098039215686,-67.50980392156863,-83.49019607843137,-0.4,0.78,1.72
1851.1,-282.5098039215686,-116.50980392156863,-67.49019607843137,1.13,-0.33,1.19
1851.15,-282.5098039215686,-100.50980392156863,-52.490196078431374,-1.83,0.08,2.94
1851.2,-282.5098039215686,-116.50980392156863,-98.49019607843137,0.57,-0.43,1.72
1851.25,-250.50980392156862,-133.50980392156862,-67.49019607843137,-0.75,-0.71,0.6
1851.3,-282.5098039215686,-116.50980392156863,-83.49019607843137,0.01,0.68,0.88
1851.35,-266.5098039215686,-149.50980392156862,-83.49019607843137,1.45,-0.96,1.02
1851.4,-282.5098039215686,-100.50980392156863,-67.49019607843137,-0.47,-0.4,2.24
1851.45,-266.5098039215686,-116.50980392156863,-98.49019607843137,1.8,-0.33,-0.44
1851.5,-282.5098039215686,-84.50980392156863,-67.49019607843137,-1.06,0.15,0.7
1851.55,-282.5098039215686,-133.50980392156862,-83.49019607843137,0.19,0.5,1.33
1851.6,-282.5098039215686,-84.50980392156863,-98.49019607843137,1.59,0.4,0.49
1851.65,-313.5098039215686,-116.50980392156863,-67.49019607843137,-2.01,1.13,1.23
1851.7,-282.5098039215686,-149.50980392156862,-83.49019607843137,0.96,-0.64,1.4
1851.75,-282.5098039215686,-133.50980392156862,-52.490196078431374,-0.61,-0.43,2.0
1851.8,-282.5098039215686,-67.50980392156863,-98.49019607843137,1.2,0.43,1.02
1851.85,-250.50980392156862,-116.50980392156863,-83.49019607843137,-0.64,1.27,0.56
1851.9,-250.50980392156862,-100.50980392156863,-98.49019607843137,1.48,-0.26,0.63
1851.95,-266.5098039215686,-67.50980392156863,-67.49019607843137,-0.08,0.75,1.37
1852.0,-266.5098039215686,-100.50980392156863,-129.49019607843138,2.67,-0.43,1.26
1852.05,-282.5098039215686,-67.50980392156863,-67.49019607843137,-0.15,0.36,0.95
1852.1,-250.50980392156862,-116.50980392156863,-129.49019607843138,-1.2,1.34,0.77
1852.15,-282.5098039215686,-100.50980392156863,-98.49019607843137,0.61,0.96,1.05
1852.2,-266.5098039215686,-116.50980392156863,-83.49019607843137,0.89,-0.15,0.04
1852.25,-266.5098039215686,-133.50980392156862,-113.49019607843137,-1.87,0.33,0.07
1852.3,-298.5098039215686,-116.50980392156863,-98.49019607843137,-0.26,0.96,-0.06
1852.35,-298.5098039215686,-149.50980392156862,-36.490196078431374,2.08,-0.75,-0.37
1852.4,-282.5098039215686,-100.50980392156863,-98.49019607843137,-1.13,1.66,-0.41
1852.45,-266.5098039215686,-116.50980392156863,-113.49019607843137,-0.29,2.32,0.0
1852.5,-266.5098039215686,-84.50980392156863,-98.49019607843137,-0.01,1.2,-0.72
1852.55,-282.5098039215686,-133.50980392156862,-67.49019607843137,-0.05,1.59,1.16
1852.6,-266.5098039215686,-84.50980392156863,-113.49019607843137,-2.01,1.24,0.49
1852.65,-266.5098039215686,-116.50980392156863,-52.490196078431374,0.71,0.82,0.18
1852.7,-298.5098039215686,-149.50980392156862,-83.49019607843137,0.85,1.27,-0.3
1852.75,-266.5098039215686,-133.50980392156862,-67.49019607843137,-1.27,0.96,-0.06
1852.8,-266.5098039215686,-67.50980392156863,-67.49019607843137,-1.59,-0.43,-0.02
1852.85,-266.5098039215686,-116.50980392156863,-113.49019607843137,-0.12,-0.47,0.53
1852.9,-282.5098039215686,-100.50980392156863,-113.49019607843137,-2.22,-0.78,1.82
1852.95,-282.5098039215686,-67.50980392156863,-98.49019607843137,1.03,-0.54,0.46
1853.0,-250.50980392156862,-116.50980392156863,-52.490196078431374,-0.89,-0.43,0.63
1853.05,-266.5098039215686,-116.50980392156863,-83.49019607843137,-1.13,-1.69,2.1
1853.1,-266.5098039215686,-116.50980392156863,-113.49019607843137,-0.89,-1.52,1.68
1853.15,-298.5098039215686,-214.50980392156862,-113.49019607843137,-0.33,-2.04,1.44
1853.2,-313.5098039215686,-67.50980392156863,-113.49019607843137,-2.15,-0.68,0.7
1853.25,-282.5098039215686,-84.50980392156863,-113.49019607843137,-2.36,0.15,1.89
1853.3,-298.5098039215686,-182.50980392156862,-98.49019607843137,-0.15,-0.71,1.68
1853.35,-250.50980392156862,-198.50980392156862,-36.490196078431374,0.78,-2.01,1.51
1853.4,313.0,-296.5098039215686,-67.49019607843137,-2.32,-0.22,2.31
1853.45,313.0,-198.50980392156862,-98.49019607843137,-2.5,1.13,2.8
1853.5,154.0,-100.50980392156863,-67.49019607843137,1.2,-0.89,0.0
1853.55,-20.0,-18.50980392156863,-83.49019607843137,0.08,-0.68,1.68
1853.6,-100.0,-84.50980392156863,-113.49019607843137,-1.52,-0.96,2.28
1853.65,-275.0,-198.50980392156862,-113.49019607843137,1.94,-1.13,0.56
1853.7,193.50980392156862,-247.50980392156862,-52.490196078431374,0.5,-0.75,0.88
1853.75,34.509803921568626,144.49019607843138,-67.49019607843137,0.92,-0.43,0.67
1853.8,49.509803921568626,258.4901960784314,-160.49019607843138,0.85,1.2,0.07
1853.85,247.01960784313727,275.4901960784314,-98.49019607843137,0.15,1.17,0.95
1853.9,279.01960784313724,62.490196078431374,-67.49019607843137,2.6,2.71,0.84
1853.95,-70.98039215686275,297.0,-67.49019607843137,1.69,5.09,-0.72
1854.0,25.019607843137255,-312.5098039215686,-83.49019607843137,2.81,6.8,1.23
1854.05,88.01960784313725,-7.490196078431373,-83.49019607843137,15.2,6.24,0.14
1854.1,231.01960784313727,25.50980392156863,-113.49019607843137,37.36,7.47,-9.47
1854.15,231.01960784313727,199.0,-83.49019607843137,24.83,13.28,-9.93
1854.2,279.01960784313724,166.0,-129.49019607843138,42.4,-0.4,-21.62
1854.25,-299.4901960784314,133.0,-113.49019607843137,31.27,-8.13,-23.54
1854.3,295.01960784313724,3.0,-175.49019607843138,28.01,-20.1,-24.45
1854.35,263.01960784313724,-176.0,-236.49019607843138,39.6,-30.71,-33.52
1854.4,295.01960784313724,-62.0,-190.49019607843138,41.31,-39.14,-33.06
1854.45,-283.4901960784314,-13.0,-221.49019607843138,-27.42,-60.88,-69.43
1854.5,-252.49019607843138,101.0,-129.49019607843138,-25.74,-79.53,-104.92
1854.55,-204.49019607843138,133.0,-206.49019607843138,-103.61,-92.62,-154.55
1854.6,-156.49019607843138,-312.5098039215686,101.50980392156863,-172.39,-95.63,-220.56
1854.65,-283.4901960784314,-231.50980392156862,316.5098039215686,-88.77,-124.51,-273.16
1854.7,-267.4901960784314,3.0,-172.0,-45.27,-171.55,-250.69
1854.75,177.50980392156862,19.0,-295.0,-26.33,-190.13,-214.75
1854.8,216.01960784313727,-286.01960784313724,-141.0,161.92,-215.26,-156.72
1854.85,-204.49019607843138,248.0,-80.0,138.86,-223.24,-102.85
1854.9,-220.49019607843138,297.0,12.0,68.82,-174.73,-46.12
1854.95,-204.49019607843138,68.0,-233.0,172.56,-17.51,-60.22
1855.0,184.01960784313727,-160.0,-76.50980392156863,220.41,5.72,-19.27
1855.05,184.01960784313727,144.49019607843138,-295.0,-12.51,-13.35,8.09
1855.1,-267.4901960784314,-280.5098039215686,227.0,122.72,-20.14,-4.43
1855.15,136.01960784313727,-280.5098039215686,89.0,47.65,1.52,9.56
1855.2,-70.98039215686275,-198.50980392156862,73.0,61.09,7.4,6.86
1855.25,104.01960784313725,264.0,150.0,46.91,6.73,2.24
1855.3,-299.4901960784314,79.49019607843137,-49.0,5.12,-4.39,6.72
