rel_time,acc_x,acc_y,acc_z,gyro_x,gyro_y,gyro_z
2128.0,-213.98039215686273,193.49019607843138,-110.0,294.0,224.96,210.85
2128.05,317.52941176470586,-84.50980392156863,224.50980392156862,239.54,217.19,177.98
2128.1,41.01960784313726,13.490196078431373,-67.49019607843137,203.91,178.2,125.41
2128.15,-315.4901960784314,-280.5098039215686,193.50980392156862,130.83,129.9,78.48
2128.2,-61.490196078431374,68.0,-264.0,96.92,92.94,49.01
2128.25,65.50980392156863,150.0,132.50980392156862,59.82,39.39,35.74
2128.3,256.5098039215686,19.0,224.50980392156862,44.31,14.43,40.61
2128.35,320.5098039215686,-29.0,-36.490196078431374,28.49,0.82,56.04
2128.4,-306.0,-94.0,-67.49019607843137,22.61,-6.35,68.85
2128.45,-195.0,-78.0,-160.49019607843138,11.17,-1.76,78.06
2128.5,-179.0,-160.0,-267.4901960784314,1.93,-0.57,81.73
2128.55,-179.0,-143.0,-283.4901960784314,-1.6,5.82,85.79
2128.6,-227.0,-274.0,298.01960784313724,3.19,8.73,71.93
2128.65,-306.0,-209.0,-298.4901960784314,-6.43,29.87,49.6
2128.7,272.5098039215686,286.5098039215686,267.01960784313724,12.11,37.39,51.84
2128.75,-290.0,319.5098039215686,-313.4901960784314,7.63,23.5,30.21
2128.8,11.0,-143.0,252.01960784313727,-14.06,43.52,18.24
2128.85,208.50980392156862,319.5098039215686,313.01960784313724,43.72,11.53,45.93
2128.9,-68.0,-192.0,-283.4901960784314,2.17,15.48,42.32
2128.95,-100.0,-192.0,252.01960784313727,20.37,10.27,52.33
2129.0,-116.0,19.0,298.01960784313724,3.68,24.86,14.67
2129.05,-45.490196078431374,-312.5098039215686,-221.49019607843138,4.45,2.81,-1.63
2129.1,-43.509803921568626,303.5098039215686,67.01960784313725,11.27,5.44,4.45
2129.15,18.50980392156863,95.49019607843137,-267.4901960784314,3.75,3.58,13.97
2129.2,-298.5098039215686,139.50980392156862,236.01960784313727,-6.11,5.54,15.51
2129.25,208.50980392156862,62.490196078431374,-206.49019607843138,1.51,-2.53,-18.39
2129.3,11.0,-13.0,298.01960784313724,-5.73,4.49,-24.1
2129.35,-4.0,35.0,298.01960784313724,-11.78,1.1,-23.85
2129.4,-68.0,68.0,313.01960784313724,-13.99,0.36,-35.19
2129.45,-84.0,101.0,313.01960784313724,-16.37,0.96,-45.27
2129.5,-68.0,84.0,313.01960784313724,-8.6,-1.66,-52.9
2129.55,-52.0,101.0,313.01960784313724,-8.14,-5.54,-56.44
2129.6,-52.0,117.0,267.01960784313724,-0.09,-7.75,-60.39
2129.65,-84.0,150.0,252.01960784313727,-14.13,-7.22,-79.82
2129.7,-116.0,166.0,252.01960784313727,-6.25,-7.96,-71.42
2129.75,-195.0,232.0,221.01960784313727,-21.09,-6.42,-58.57
2129.8,-227.0,133.0,206.01960784313727,-5.9,-0.12,-50.42
2129.85,304.5098039215686,150.0,282.01960784313724,-1.98,5.72,-46.64
2129.9,320.5098039215686,150.0,-313.4901960784314,-0.83,6.56,-36.7
2129.95,288.5098039215686,101.0,-298.4901960784314,-3.35,4.95,-23.08
2130.0,-275.0,52.0,-252.49019607843138,14.77,-1.06,-9.54
2130.05,-243.0,52.0,-267.4901960784314,9.45,-0.64,-6.39
2130.1,-275.0,35.0,-313.4901960784314,12.08,0.92,-7.72
2130.15,-306.0,84.0,267.01960784313724,9.31,6.49,-5.55
2130.2,-275.0,35.0,-313.4901960784314,1.44,10.62,-5.97
2130.25,-227.0,19.0,-298.4901960784314,2.84,10.44,-5.93
2130.3,-227.0,52.0,282.01960784313724,5.43,6.1,-0.51
2130.35,-195.0,19.0,-313.4901960784314,4.83,8.94,-4.57
2130.4,-211.0,35.0,298.01960784313724,4.94,9.64,-9.61
2130.45,-195.0,3.0,267.01960784313724,13.62,9.53,-8.24
2130.5,-195.0,19.0,298.01960784313724,7.28,9.18,-8.42
2130.55,-179.0,-29.0,267.01960784313724,4.52,7.71,-7.12
2130.6,-179.0,19.0,267.01960784313724,21.11,-4.53,9.35
2130.65,-36.0,19.0,236.01960784313727,5.08,-3.83,-4.5
2130.7,-163.0,-13.0,298.01960784313724,2.73,-1.59,4.87
2130.75,-195.0,19.0,298.01960784313724,-5.48,2.95,4.66
2130.8,-179.0,-29.0,267.01960784313724,-2.19,2.85,-0.05
2130.85,-179.0,3.0,267.01960784313724,-1.56,3.97,-4.53
2130.9,-195.0,-29.0,298.01960784313724,-1.46,1.06,1.23
2130.95,-163.0,-29.0,267.01960784313724,1.23,-1.83,-1.28
2131.0,-179.0,3.0,298.01960784313724,1.61,-1.38,-2.78
2131.05,-179.0,3.0,282.01960784313724,8.26,-2.01,-1.21
2131.1,-179.0,-13.0,282.01960784313724,3.15,-0.08,2.84
2131.15,-179.0,-45.0,282.01960784313724,-0.9,2.78,-6.25
2131.2,-179.0,-29.0,298.01960784313724,-4.89,4.84,-5.9
2131.25,-179.0,-45.0,-313.4901960784314,-1.95,3.9,-7.86
2131.3,-179.0,-29.0,267.01960784313724,-5.83,5.05,-2.4
2131.35,-147.0,3.0,267.01960784313724,-3.84,4.53,-1.35
2131.4,-179.0,35.0,298.01960784313724,-4.89,3.27,-0.61
2131.45,-163.0,-13.0,282.01960784313724,1.19,1.69,-1.87
2131.5,-163.0,3.0,282.01960784313724,2.07,1.17,-4.43
2131.55,-147.0,3.0,282.01960784313724,-3.1,4.32,-5.34
2131.6,-131.0,-13.0,282.01960784313724,-1.46,2.95,-3.73
2131.65,-131.0,-13.0,267.01960784313724,9.56,1.59,2.91
2131.7,-163.0,-13.0,252.01960784313727,-7.69,7.15,-10.41
2131.75,-179.0,-62.0,282.01960784313724,-4.85,6.73,-10.34
2131.8,-195.0,3.0,252.01960784313727,0.49,-0.54,-9.29
2131.85,-131.0,3.0,267.01960784313724,4.27,-5.4,-5.62
2131.9,-100.0,3.0,298.01960784313724,2.14,-5.89,-3.2
2131.95,-116.0,3.0,282.01960784313724,4.59,-6.28,-2.29
2132.0,-84.0,19.0,298.01960784313724,2.07,-1.94,-3.38
2132.05,-131.0,19.0,267.01960784313724,-0.65,0.19,-4.99
2132.1,-163.0,3.0,298.01960784313724,-3.45,2.57,-4.74
2132.15,-163.0,19.0,267.01960784313724,-3.98,1.13,-4.22
2132.2,-147.0,3.0,298.01960784313724,-2.72,-0.22,-3.55
2132.25,-131.0,-45.0,267.01960784313724,-1.49,-1.1,-5.23
2132.3,-147.0,-29.0,313.01960784313724,-1.39,-0.33,-7.51
2132.35,-147.0,-13.0,282.01960784313724,-1.0,1.69,-9.71
2132.4,-147.0,-29.0,282.01960784313724,-2.93,2.36,-10.87
2132.45,-147.0,-29.0,282.01960784313724,5.22,2.53,-8.66
2132.5,-131.0,-13.0,236.01960784313727,1.54,4.25,-9.89
2132.55,-147.0,-13.0,252.01960784313727,3.54,4.32,-9.47
2132.6,-131.0,-13.0,267.01960784313724,6.27,2.25,-6.11
2132.65,-116.0,3.0,282.01960784313724,3.12,0.08,0.25
2132.7,-131.0,-13.0,282.01960784313724,4.94,0.75,2.81
2132.75,-116.0,-29.0,267.01960784313724,0.21,2.71,2.18
2132.8,-131.0,-62.0,298.01960784313724,0.14,3.72,1.37
2132.85,-131.0,-29.0,282.01960784313724,3.47,3.09,-0.02
2132.9,-100.0,3.0,267.01960784313724,-1.56,4.39,-0.65
2132.95,-131.0,-45.0,252.01960784313727,-0.44,1.97,0.81
2133.0,-131.0,-45.0,282.01960784313724,0.49,-0.26,2.81
2133.05,-116.0,-29.0,267.01960784313724,3.22,-0.99,2.88
2133.1,-116.0,-62.0,267.01960784313724,2.24,-0.12,1.02
2133.15,-116.0,-45.0,267.01960784313724,-0.69,-1.27,-0.47
2133.2,-116.0,-62.0,298.01960784313724,1.79,-1.52,0.29
2133.25,-116.0,-62.0,298.01960784313724,-1.49,0.33,-0.96
2133.3,-100.0,-62.0,282.01960784313724,0.14,2.36,-1.59
2133.35,-100.0,-13.0,313.01960784313724,-1.32,4.35,-1.84
2133.4,-100.0,-29.0,267.01960784313724,0.74,4.46,0.36
2133.45,-131.0,-13.0,282.01960784313724,-2.51,6.03,1.65
2133.5,-131.0,-45.0,252.01960784313727,-4.43,5.05,0.11
2133.55,-131.0,-45.0,267.01960784313724,-1.74,2.01,-0.23
2133.6,-131.0,-62.0,252.01960784313727,2.52,-1.55,-0.16
2133.65,-100.0,-45.0,282.01960784313724,1.05,-1.87,-1.77
2133.7,-100.0,-62.0,282.01960784313724,1.75,-0.29,-3.06
2133.75,-100.0,-29.0,252.01960784313727,-2.3,1.31,-4.53
2133.8,-116.0,-62.0,282.01960784313724,-0.51,0.64,-3.27
2133.85,-131.0,-29.0,282.01960784313724,0.25,-1.2,-0.09
2133.9,-100.0,-45.0,252.01960784313727,1.96,-3.09,2.6
2133.95,-100.0,-45.0,282.01960784313724,2.63,-2.29,4.28
2134.0,-100.0,-45.0,236.01960784313727,1.68,-0.01,4.03
2134.05,-131.0,-45.0,267.01960784313724,-1.53,2.99,2.88
2134.1,-147.0,-62.0,267.01960784313724,-1.88,0.96,2.18
2134.15,-84.0,-62.0,282.01960784313724,2.0,-1.06,3.65
2134.2,-116.0,-45.0,282.01960784313724,1.19,-0.47,3.58
2134.25,-131.0,-45.0,267.01960784313724,-0.37,1.45,2.88
2134.3,-116.0,-29.0,313.01960784313724,-1.77,1.55,1.48
2134.35,-131.0,-45.0,298.01960784313724,-0.3,1.1,1.55
2134.4,-100.0,-13.0,252.01960784313727,2.63,0.15,3.47
2134.45,-100.0,-45.0,267.01960784313724,3.36,1.24,4.7
2134.5,-131.0,-29.0,236.01960784313727,-2.72,3.93,2.07
2134.55,-116.0,-45.0,282.01960784313724,-3.0,3.06,0.39
2134.6,-100.0,-29.0,267.01960784313724,-1.28,0.36,0.81
2134.65,-100.0,-45.0,267.01960784313724,-0.02,-0.43,0.67
2134.7,-116.0,-45.0,282.01960784313724,-1.28,-0.08,-1.03
2134.75,-100.0,-62.0,267.01960784313724,2.87,-1.13,0.25
2134.8,-100.0,-29.0,252.01960784313727,3.26,-0.75,0.01
2134.85,-100.0,-62.0,267.01960784313724,2.49,0.4,-0.68
2134.9,-100.0,-62.0,236.01960784313727,1.54,-0.4,-0.68
2134.95,-84.0,-29.0,282.01960784313724,3.92,-1.34,0.71
2135.0,-84.0,-13.0,282.01960784313724,2.63,-0.99,1.55
2135.05,-100.0,-45.0,267.01960784313724,1.86,0.15,1.69
2135.1,-100.0,-29.0,282.01960784313724,0.39,1.1,1.44
2135.15,-116.0,-62.0,282.01960784313724,0.98,0.43,0.81
2135.2,-84.0,-45.0,282.01960784313724,-0.13,0.22,0.95
2135.25,-116.0,-62.0,267.01960784313724,0.49,-0.26,0.43
2135.3,-100.0,-45.0,282.01960784313724,-0.34,1.31,-1.31
2135.35,-100.0,-62.0,267.01960784313724,-2.05,2.92,-3.38
2135.4,-100.0,-62.0,267.01960784313724,-1.56,2.78,-4.04
2135.45,-116.0,-45.0,267.01960784313724,-1.21,1.34,-3.17
2135.5,-116.0,-45.0,267.01960784313724,-2.05,-0.05,-1.59
2135.55,-100.0,-29.0,252.01960784313727,0.0,-0.5,0.43
2135.6,-84.0,-45.0,282.01960784313724,0.14,0.4,0.85
2135.65,-100.0,-62.0,267.01960784313724,0.11,1.03,0.08
2135.7,-84.0,-45.0,282.01960784313724,0.49,2.08,-0.65
2135.75,-84.0,-62.0,267.01960784313724,0.0,2.81,0.5
2135.8,-116.0,-45.0,252.01960784313727,-1.21,1.83,-0.16
2135.85,-84.0,-78.0,282.01960784313724,2.45,0.01,0.92
2135.9,-100.0,-29.0,282.01960784313724,1.58,0.19,0.92
2135.95,-116.0,-45.0,267.01960784313724,0.46,0.43,0.6
2136.0,-100.0,-45.0,282.01960784313724,0.28,0.54,0.95
2136.05,-100.0,-45.0,298.01960784313724,0.32,-0.57,2.14
2136.1,-84.0,-62.0,267.01960784313724,0.98,-1.17,2.21
2136.15,-100.0,-62.0,267.01960784313724,0.88,-0.26,1.93
2136.2,-100.0,-45.0,282.01960784313724,0.35,0.71,1.69
2136.25,-100.0,-62.0,267.01960784313724,0.63,0.96,1.44
2136.3,-84.0,-62.0,252.01960784313727,0.07,1.2,1.79
2136.35,-84.0,-62.0,282.01960784313724,-0.2,1.1,1.97
2136.4,-100.0,-62.0,267.01960784313724,0.14,-0.15,2.07
2136.45,-100.0,-45.0,267.01960784313724,1.37,-0.54,2.21
2136.5,-84.0,-45.0,298.01960784313724,1.37,-0.47,1.23
2136.55,-84.0,-45.0,313.01960784313724,-0.02,1.24,0.29
2136.6,-84.0,-62.0,313.01960784313724,-0.83,1.97,-0.61
2136.65,-116.0,-45.0,282.01960784313724,-0.58,1.06,-0.65
2136.7,-84.0,-45.0,298.01960784313724,-0.34,0.82,0.57
2136.75,-84.0,-62.0,252.01960784313727,-0.06,0.54,1.2
2136.8,-100.0,-62.0,267.01960784313724,-0.3,0.5,1.41
2136.85,-84.0,-62.0,267.01960784313724,0.84,0.61,1.44
2136.9,-84.0,-45.0,267.01960784313724,0.42,2.01,1.79
2136.95,-100.0,-62.0,267.01960784313724,-1.28,1.94,0.64
2137.0,-68.0,-45.0,252.01960784313727,0.95,1.03,0.85
2137.05,-100.0,-45.0,267.01960784313724,-1.39,0.99,0.39
2137.1,-131.0,-62.0,267.01960784313724,-0.83,0.29,-0.19
2137.15,-84.0,-45.0,282.01960784313724,-0.55,-0.43,-1.1
2137.2,-84.0,-62.0,282.01960784313724,0.63,-0.29,-0.26
2137.25,-84.0,-45.0,267.01960784313724,-1.67,0.64,0.25
2137.3,-68.0,-62.0,267.01960784313724,-0.3,0.29,0.74
2137.35,-116.0,-29.0,252.01960784313727,0.91,-0.26,0.46
2137.4,-68.0,-62.0,282.01960784313724,1.75,-0.01,0.25
2137.45,-84.0,-62.0,282.01960784313724,-0.9,1.13,-0.44
2137.5,-116.0,-62.0,282.01960784313724,1.05,0.64,-0.33
2137.55,-84.0,-62.0,282.01960784313724,2.07,-0.29,0.5
2137.6,-68.0,-62.0,267.01960784313724,1.61,-0.85,0.92
2137.65,-100.0,-62.0,282.01960784313724,2.21,-1.13,1.44
2137.7,-100.0,-62.0,252.01960784313727,0.49,-0.29,1.55
2137.75,-84.0,-62.0,252.01960784313727,0.04,-0.5,1.79
2137.8,-84.0,-45.0,298.01960784313724,0.49,-0.89,2.7
2137.85,-68.0,-45.0,267.01960784313724,1.19,-0.64,3.3
2137.9,-84.0,-62.0,282.01960784313724,-0.37,-0.43,3.12
2137.95,-84.0,-62.0,252.01960784313727,1.47,-0.54,2.98
2138.0,-84.0,-62.0,282.01960784313724,-0.58,0.12,2.74
2138.05,-68.0,-62.0,252.01960784313727,-0.06,0.26,2.49
2138.1,-84.0,-62.0,267.01960784313724,-0.58,-0.05,1.44
2138.15,-68.0,-45.0,267.01960784313724,0.39,0.78,-0.05
2138.2,-100.0,-62.0,267.01960784313724,-0.97,1.24,-1.14
2138.25,-100.0,-62.0,282.01960784313724,-1.21,0.99,-0.82
2138.3,-84.0,-45.0,282.01960784313724,-0.97,0.19,-0.05
2138.35,-100.0,-45.0,267.01960784313724,-0.83,0.47,0.53
2138.4,-84.0,-62.0,267.01960784313724,-1.88,0.92,0.11
2138.45,-84.0,-78.0,298.01960784313724,-0.51,0.78,-0.3
2138.5,-84.0,-45.0,267.01960784313724,0.46,1.34,0.18
2138.55,-100.0,-45.0,267.01960784313724,-0.48,1.66,0.25
2138.6,-84.0,-62.0,282.01960784313724,-1.42,2.04,-0.37
2138.65,-100.0,-45.0,282.01960784313724,-1.07,1.55,-0.58
2138.7,-84.0,-62.0,282.01960784313724,0.07,0.05,-0.65
2138.75,-84.0,-45.0,252.01960784313727,-0.27,0.22,-0.26
2138.8,-100.0,-29.0,267.01960784313724,-0.34,0.43,-0.05
2138.85,-68.0,-45.0,267.01960784313724,0.84,-0.15,-0.4
2138.9,-52.0,-62.0,282.01960784313724,-0.69,-0.47,-0.16
2138.95,-100.0,-62.0,282.01960784313724,1.44,-1.94,0.95
2139.0,-84.0,-45.0,252.01960784313727,1.44,-1.62,1.37
2139.05,-84.0,-62.0,267.01960784313724,0.25,-0.92,1.23
2139.1,-84.0,-29.0,267.01960784313724,1.37,-1.06,1.58
2139.15,-68.0,-62.0,282.01960784313724,1.72,0.61,2.32
2139.2,272.5098039215686,-100.50980392156863,-267.4901960784314,0.77,-1.31,2.84
2139.25,216.01960784313727,-67.50980392156863,-252.49019607843138,1.47,-1.76,2.88
2139.3,-186.50980392156862,210.01960784313727,21.019607843137255,2.17,-2.36,2.91
2139.35,-123.50980392156863,313.0,116.50980392156863,4.1,-0.68,2.11
2139.4,65.50980392156863,-263.5098039215686,-33.0,-0.79,0.68,1.55
2139.45,-282.5098039215686,-170.49019607843138,252.01960784313727,-1.6,1.97,0.74
2139.5,122.0,-94.0,298.01960784313724,-1.56,0.96,0.11
2139.55,-204.49019607843138,111.49019607843137,-144.49019607843138,-1.28,-0.5,1.48
2139.6,201.0,-56.490196078431374,98.01960784313725,-1.95,-0.15,2.18
2139.65,265.0,-258.0,221.01960784313727,-1.07,-0.12,2.18
2139.7,-188.49019607843138,209.49019607843138,-129.49019607843138,-1.91,0.33,1.97
2139.75,-234.50980392156862,-203.49019607843138,52.01960784313726,-1.28,-0.33,2.6
2139.8,106.0,-13.0,267.01960784313724,0.18,-0.43,2.53
2139.85,-204.49019607843138,79.49019607843137,-144.49019607843138,-1.56,0.82,2.18
2139.9,313.0,-121.49019607843137,52.01960784313726,-0.27,0.22,1.3
2139.95,138.0,-94.0,252.01960784313727,2.56,0.05,2.07
2140.0,-172.49019607843138,111.49019607843137,-160.49019607843138,-0.06,0.29,2.77
2140.05,281.0,-105.49019607843137,98.01960784313725,-0.41,0.57,4.03
2140.1,170.0,-94.0,267.01960784313724,-0.02,-1.13,4.14
2140.15,-172.49019607843138,95.49019607843137,-129.49019607843138,0.04,-1.66,4.91
2140.2,313.0,-138.49019607843138,67.01960784313725,-0.76,-1.52,5.68
2140.25,-163.0,150.0,298.01960784313724,-0.62,-0.78,6.27
2140.3,-147.0,52.0,267.01960784313724,-0.3,-1.03,5.78
2140.35,-68.0,-78.0,252.01960784313727,-2.05,0.96,3.65
2140.4,-100.0,-62.0,267.01960784313724,-1.53,1.1,1.41
2140.45,-68.0,-62.0,267.01960784313724,-3.84,3.23,-1.03
2140.5,-84.0,-78.0,282.01960784313724,-5.06,4.21,-4.04
2140.55,-84.0,-78.0,298.01960784313724,-8.56,2.57,-8.03
2140.6,-84.0,-78.0,252.01960784313727,-9.33,0.4,-3.06
2140.65,-131.0,-94.0,252.01960784313727,-10.52,-3.65,8.13
2140.7,-131.0,-94.0,267.01960784313724,-8.53,-6.28,11.31
2140.75,-163.0,270.5098039215686,267.01960784313724,-14.97,-2.6,3.93
2140.8,147.49019607843138,-301.4901960784314,159.01960784313727,-20.85,2.29,0.36
2140.85,288.5098039215686,-165.50980392156862,-221.49019607843138,-24.91,4.98,0.74
2140.9,129.50980392156862,52.0,-283.4901960784314,-23.09,6.49,5.68
2140.95,99.49019607843137,-285.4901960784314,98.01960784313725,-20.95,7.26,9.95
2141.0,320.5098039215686,-133.50980392156862,-236.49019607843138,-17.24,9.71,13.41
2141.05,81.50980392156863,215.0,313.01960784313724,-28.55,12.61,2.74
2141.1,147.49019607843138,-219.49019607843138,21.019607843137255,-44.19,16.32,-6.14
2141.15,272.5098039215686,13.490196078431373,252.01960784313727,-97.36,15.13,-16.33
2141.2,34.509803921568626,313.0,252.01960784313727,-189.06,17.97,-22.94
2141.25,83.49019607843137,-105.49019607843137,175.01960784313727,252.56,10.13,-25.32
2141.3,320.5098039215686,144.49019607843138,193.50980392156862,204.89,9.32,-25.43
2141.35,97.50980392156863,-171.01960784313727,-203.0,-266.55,16.32,-11.43
2141.4,274.4901960784314,-198.50980392156862,132.50980392156862,-152.34,20.52,4.1
2141.45,-84.0,285.98039215686276,-64.0,-137.05,14.64,5.57
2141.5,49.509803921568626,89.98039215686275,243.0,-62.67,-2.81,3.82
2141.55,210.49019607843138,117.0,-95.0,-48.46,-1.8,-0.75
2141.6,58.0,-122.01960784313725,58.0,-27.74,-3.48,-6.46
2141.65,-61.490196078431374,204.98039215686273,-215.50980392156862,-43.28,3.65,-8.77
2141.7,51.490196078431374,183.0,-18.0,-44.16,9.74,-9.4
2141.75,106.0,-318.01960784313724,135.0,-31.7,23.88,-2.33
2141.8,256.5098039215686,-89.01960784313725,-184.50980392156862,-22.81,42.29,-2.36
2141.85,74.0,128.49019607843138,-292.5098039215686,-33.45,56.08,2.91
2141.9,-163.0,-286.01960784313724,-261.5098039215686,-21.34,45.83,7.85
2141.95,-211.0,-286.01960784313724,-292.5098039215686,-23.37,31.69,10.37
2142.0,-195.0,258.4901960784314,-292.5098039215686,19.67,25.88,15.69
2142.05,-275.0,-302.01960784313724,-307.5098039215686,5.25,24.79,17.02
2142.1,-290.0,242.49019607843138,243.0,11.66,20.14,19.33
2142.15,-179.0,193.49019607843138,227.0,13.06,24.13,21.81
2142.2,-100.0,193.49019607843138,212.0,12.53,24.41,20.59
2142.25,-100.0,144.49019607843138,212.0,-24.31,21.82,23.81
2142.3,-100.0,209.49019607843138,258.0,-4.68,16.39,26.47
2142.35,170.0,281.0,89.0,-7.72,11.07,33.15
2142.4,242.49019607843138,215.0,-79.0,-10.1,10.09,39.84
2142.45,-68.0,-24.019607843137255,150.0,-44.12,15.27,34.97
2142.5,295.01960784313724,52.470588235294116,61.490196078431374,-33.48,12.86,22.06
2142.55,65.50980392156863,-155.01960784313727,-61.509803921568626,-29.35,1.17,21.43
2142.6,-123.50980392156863,101.0,319.0,14.32,14.68,13.48
2142.65,-241.01960784313727,166.0,181.0,-14.02,30.57,6.83
2142.7,-20.0,-253.01960784313727,-107.50980392156863,3.47,27.35,13.48
2142.75,-299.4901960784314,-111.52941176470588,46.490196078431374,7.04,25.98,17.96
2142.8,-283.4901960784314,89.98039215686275,107.49019607843137,26.36,41.77,16.39
2142.85,122.0,117.0,319.0,12.22,60.77,23.11
2142.9,-177.01960784313727,-258.0,119.0,11.69,70.82,27.8
2142.95,-234.50980392156862,46.490196078431374,243.0,-7.72,75.51,27.17
2143.0,2.5098039215686274,-241.52941176470588,-15.509803921568627,2.07,79.6,32.24
2143.05,311.01960784313724,318.98039215686276,123.49019607843137,2.77,76.52,34.66
2143.1,-68.0,-198.50980392156862,-138.50980392156862,19.5,93.18,42.29
2143.15,-193.01960784313727,-160.0,73.0,19.88,121.04,31.51
2143.2,-266.5098039215686,62.490196078431374,289.0,-9.65,105.5,46.42
2143.25,-140.49019607843138,-94.52941176470588,138.49019607843138,-23.44,93.57,37.95
2143.3,231.01960784313727,-307.52941176470586,15.490196078431373,2.91,84.99,37.39
2143.35,-163.0,13.490196078431373,273.0,-0.13,79.01,40.54
2143.4,186.0,-35.509803921568626,196.0,-8.77,72.25,44.77
2143.45,-195.0,291.4901960784314,320.0,-37.54,42.08,53.21
2143.5,11.0,128.49019607843138,-276.5098039215686,-26.55,22.24,44.7
2143.55,27.0,111.49019607843137,289.0,-20.18,15.87,39.1
2143.6,-36.0,-286.01960784313724,-199.50980392156862,18.48,28.22,35.95
2143.65,-20.0,209.49019607843138,320.0,103.5,45.62,30.04
2143.7,42.0,-302.01960784313724,-30.50980392156863,165.48,56.36,31.26
2143.75,-52.0,275.4901960784314,-276.5098039215686,169.19,39.07,19.29
2143.8,27.0,291.4901960784314,-184.50980392156862,-6.95,50.76,1.83
2143.85,11.0,-296.5098039215686,150.0,-13.67,67.04,-2.4
2143.9,11.0,242.49019607843138,58.0,-78.7,77.08,5.99
2143.95,58.0,242.49019607843138,-307.5098039215686,-29.46,82.79,3.54
2144.0,42.0,291.4901960784314,243.0,-15.53,71.59,-1.42
2144.05,42.0,111.49019607843137,-169.50980392156862,10.33,64.87,-1.1
2144.1,27.0,209.49019607843138,-230.50980392156862,10.61,68.4,-8.45
2144.15,11.0,226.49019607843138,-276.5098039215686,-9.79,75.96,-3.1
2144.2,-131.0,307.4901960784314,258.0,-20.78,65.36,-5.51
2144.25,-163.0,-286.01960784313724,166.0,-9.33,43.45,-17.06
2144.3,-179.0,-302.01960784313724,166.0,5.88,22.62,-14.02
2144.35,-163.0,-318.01960784313724,58.0,5.36,19.58,-11.29
2144.4,-179.0,275.4901960784314,58.0,-29.18,21.78,-8.84
2144.45,-195.0,226.49019607843138,135.0,-20.99,23.64,-4.43
2144.5,-163.0,258.4901960784314,150.0,-42.09,16.81,-5.34
2144.55,-179.0,209.49019607843138,166.0,-39.19,16.74,-6.88
2144.6,-259.0,226.49019607843138,150.0,-83.81,20.0,-11.15
2144.65,-243.0,144.49019607843138,304.0,-76.46,15.52,-16.92
2144.7,-179.0,128.49019607843138,258.0,11.34,2.36,-19.93
2144.75,-211.0,111.49019607843137,-215.50980392156862,-32.36,-9.78,-31.52
2144.8,-290.0,79.49019607843137,-169.50980392156862,10.85,-11.84,-32.18
2144.85,-306.0,209.49019607843138,-92.50980392156863,44.0,-6.38,-30.26
2144.9,240.50980392156862,62.490196078431374,-184.50980392156862,100.1,10.51,-43.84
2144.95,288.5098039215686,144.49019607843138,-215.50980392156862,134.12,36.97,-67.64
2145.0,113.50980392156863,13.490196078431373,227.0,133.39,37.11,-85.38
2145.05,34.509803921568626,209.49019607843138,320.0,101.54,27.84,-96.55
2145.1,2.5098039215686274,46.490196078431374,-307.5098039215686,24.33,30.71,-93.68
2145.15,-77.49019607843137,242.49019607843138,243.0,24.15,27.14,-78.0
2145.2,18.50980392156863,275.4901960784314,258.0,10.5,37.11,-59.31
2145.25,34.509803921568626,226.49019607843138,181.0,36.54,35.78,-40.16
2145.3,18.50980392156863,291.4901960784314,150.0,4.34,29.73,-23.61
2145.35,145.50980392156862,193.49019607843138,120.0,-12.62,25.14,8.69
2145.4,97.50980392156863,-286.01960784313724,-18.0,12.95,12.47,54.36
2145.45,97.50980392156863,-269.01960784313724,-156.0,43.54,-2.04,58.32
2145.5,34.509803921568626,275.4901960784314,-295.0,40.78,-17.79,46.1
2145.55,65.50980392156863,-35.509803921568626,316.5098039215686,76.51,-26.09,23.81
2145.6,-61.490196078431374,-51.509803921568626,239.50980392156862,69.09,-25.25,-10.03
2145.65,-108.49019607843137,166.0,239.50980392156862,101.19,-34.63,-70.79
2145.7,-172.49019607843138,166.0,316.5098039215686,89.18,-42.57,-131.9
2145.75,311.01960784313724,133.0,-310.0,59.22,-48.94,-174.46
2145.8,152.01960784313727,117.0,-156.0,16.84,-53.39,-193.5
2145.85,-86.98039215686275,84.0,-156.0,6.2,-59.02,-198.19
2145.9,285.52941176470586,117.0,-264.0,-50.91,-49.89,-165.01
2145.95,79.52941176470588,281.0,-172.0,-110.9,-60.07,-99.42
2146.0,174.52941176470588,-35.509803921568626,58.0,-167.95,-65.39,-58.08
2146.05,25.019607843137255,-318.01960784313724,181.0,-214.75,-34.52,-34.0
2146.1,-116.0,-122.01960784313725,58.0,-213.59,22.24,49.08
2146.15,131.49019607843138,-89.01960784313725,-80.0,-200.08,28.01,213.89
2146.2,-154.50980392156862,24.980392156862745,86.50980392156863,-137.89,17.02,-325.69
2146.25,-179.0,318.98039215686276,159.01960784313727,-14.62,16.43,-188.31
2146.3,231.01960784313727,-149.0392156862745,278.52941176470586,94.78,16.22,-73.83
2146.35,-229.98039215686273,134.94117647058823,232.52941176470588,-312.92,48.84,-59.34
2146.4,-82.45098039215686,-229.09803921568627,278.52941176470586,-146.46,101.79,316.06
2146.45,133.0392156862745,140.92156862745097,224.50980392156862,320.95,-72.57,-22.35
2146.5,-238.47058823529412,242.49019607843138,30.49019607843137,9.28,-283.97,-153.25
2146.55,247.01960784313727,-246.98039215686273,-23.529411764705884,-42.23,-159.86,-217.58
2146.6,285.52941176470586,80.01960784313725,-161.52941176470588,-153.99,-81.39,-280.96
2146.65,240.50980392156862,-290.0,-208.52941176470588,-182.76,-94.34,-225.8
2146.7,65.50980392156863,-18.50980392156863,15.490196078431373,-125.5,-131.26,-178.55
2146.75,81.50980392156863,-40.01960784313726,178.50980392156862,-92.42,-163.39,-142.5
2146.8,34.509803921568626,307.4901960784314,-160.49019607843138,-21.3,-131.51,-102.39
2146.85,-188.49019607843138,-57.01960784313726,298.01960784313724,20.62,-103.33,-52.41
2146.9,-124.49019607843137,95.49019607843137,282.01960784313724,74.87,-80.86,-19.79
2146.95,-220.49019607843138,62.490196078431374,267.01960784313724,6.65,-71.06,-46.6
2147.0,-41.96078431372549,-116.50980392156863,178.50980392156862,-32.29,-103.02,-40.41
2147.05,-48.470588235294116,150.0,147.50980392156862,-7.16,-100.67,-62.98
2147.1,-64.47058823529412,297.0,255.50980392156862,-20.11,-88.74,-80.13
2147.15,-70.98039215686275,150.0,301.5098039215686,21.42,-56.68,-67.71
2147.2,-204.49019607843138,166.0,255.50980392156862,3.08,-24.58,-47.65
2147.25,224.50980392156862,183.0,239.50980392156862,-4.96,4.63,-25.92
2147.3,-195.0,166.0,255.50980392156862,-31.35,17.62,0.88
2147.35,-84.0,183.0,-310.0,20.62,13.94,0.36
2147.4,-195.0,166.0,301.5098039215686,20.76,33.65,-13.28
2147.45,184.01960784313727,-182.50980392156862,316.5098039215686,32.97,38.51,23.25
2147.5,-315.4901960784314,215.0,270.5098039215686,50.12,25.07,61.47
2147.55,-172.49019607843138,215.0,-310.0,51.14,26.44,67.07
2147.6,-236.49019607843138,150.0,255.50980392156862,85.19,18.67,60.38
2147.65,-140.49019607843138,199.0,286.5098039215686,98.32,23.5,44.21
2147.7,-236.49019607843138,183.0,316.5098039215686,115.05,26.75,40.4
2147.75,-140.49019607843138,101.0,301.5098039215686,98.35,30.95,39.45
2147.8,-236.49019607843138,52.0,316.5098039215686,127.58,30.95,37.74
2147.85,-220.49019607843138,84.0,286.5098039215686,125.34,35.89,41.17
2147.9,-267.4901960784314,52.0,286.5098039215686,124.67,39.46,48.52
2147.95,279.01960784313724,35.0,224.50980392156862,132.3,40.09,55.52
2148.0,295.01960784313724,84.0,239.50980392156862,132.62,47.19,73.33
2148.05,247.01960784313727,150.0,86.50980392156863,133.46,53.53,72.88
2148.1,184.01960784313727,199.0,286.5098039215686,105.81,72.39,72.14
2148.15,295.01960784313724,183.0,-310.0,126.7,98.36,60.94
2148.2,247.01960784313727,232.0,-126.0,116.55,115.41,24.12
2148.25,-315.4901960784314,199.0,224.50980392156862,-50.25,117.12,-14.86
2148.3,72.01960784313725,52.0,224.50980392156862,-121.61,8.27,-6.74
2148.35,-61.490196078431374,-176.0,298.01960784313724,-75.03,-52.16,-17.27
2148.4,81.50980392156863,-62.0,113.01960784313725,-63.97,-65.99,-44.85
2148.45,49.509803921568626,-62.0,298.01960784313724,-126.97,-76.91,-79.29
2148.5,81.50980392156863,-78.0,-83.49019607843137,-104.99,-78.94,-89.62
2148.55,-108.49019607843137,281.0,-129.49019607843138,-100.23,-74.95,-93.75
2148.6,-124.49019607843137,248.0,9.509803921568627,-110.31,-77.01,-90.81
2148.65,-204.49019607843138,-296.5098039215686,-36.490196078431374,-96.8,-69.38,-94.97
2148.7,-267.4901960784314,-214.50980392156862,-67.49019607843137,-100.82,-58.57,-106.07
2148.75,-315.4901960784314,-214.50980392156862,24.50980392156863,-105.51,-38.2,-99.73
2148.8,-299.4901960784314,-214.50980392156862,-36.490196078431374,-83.57,-22.87,-87.1
2148.85,-204.49019607843138,-198.50980392156862,-67.49019607843137,-42.9,-0.05,-62.39
2148.9,-156.49019607843138,-182.50980392156862,-129.49019607843138,-77.76,22.27,-37.71
2148.95,-283.4901960784314,297.0,-52.490196078431374,-116.61,12.37,-18.29
2149.0,-252.49019607843138,248.0,-52.490196078431374,-94.07,-13.42,13.45
2149.05,-188.49019607843138,117.0,-36.490196078431374,-17.59,-21.22,24.3
2149.1,-93.49019607843137,-13.0,-67.49019607843137,11.66,-16.11,2.91
2149.15,-188.49019607843138,-13.0,70.50980392156863,-5.38,-24.83,-17.69
2149.2,-315.4901960784314,-78.0,239.50980392156862,1.12,-31.13,-34.95
2149.25,168.01960784313727,-78.0,224.50980392156862,14.53,-29.24,-33.86
2149.3,184.01960784313727,-143.0,193.50980392156862,-1.77,-33.79,-45.73
2149.35,168.01960784313727,-160.0,-310.0,-21.13,-60.81,-55.11
2149.4,168.01960784313727,-62.0,-187.0,-45.8,-85.59,-45.48
2149.45,279.01960784313724,19.0,-95.0,-91.65,-81.14,-45.66
2149.5,279.01960784313724,117.0,-49.0,-55.39,-53.77,-46.32
2149.55,-124.49019607843137,-165.50980392156862,-110.0,-119.3,-13.35,-9.96
2149.6,208.50980392156862,-133.50980392156862,-249.0,-142.54,10.58,107.74
2149.65,-243.0,46.490196078431374,224.50980392156862,-153.46,16.22,239.16
2149.7,-84.0,111.49019607843137,-52.490196078431374,-96.13,3.06,308.78
2149.75,-306.0,-8.019607843137255,-298.4901960784314,61.08,45.06,-266.01
2149.8,-245.98039215686273,226.9607843137255,-9.980392156862745,221.06,115.58,-124.33
2149.85,12.549019607843137,-88.07843137254902,159.01960784313727,-238.02,150.55,-155.17
2149.9,-59.94117647058823,-158.58823529411765,-83.49019607843137,-149.05,214.81,322.11
2149.95,-27.941176470588236,-279.5686274509804,-126.0,65.03,-34.7,112.53
2150.0,86.03921568627452,178.01960784313727,80.98039215686275,50.47,-199.72,-79.89
2150.05,9.019607843137255,-127.47058823529412,95.98039215686275,-115.52,-127.17,-157.34
2150.1,25.019607843137255,96.01960784313725,115.47058823529412,-192.14,-99.03,-262.62
2150.15,113.50980392156863,221.50980392156862,-161.52941176470588,-104.78,-140.26,-267.03
2150.2,18.50980392156863,-84.50980392156863,-292.5098039215686,-61.41,-196.47,-276.66
2150.25,-172.49019607843138,275.4901960784314,-79.0,-57.56,-208.37,-252.26
2150.3,-70.98039215686275,-155.01960784313727,-98.49019607843137,68.5,-204.55,-119.75
2150.35,285.52941176470586,-171.01960784313727,-298.4901960784314,18.24,-138.12,-12.69
2150.4,301.52941176470586,128.49019607843138,113.01960784313725,27.16,-110.16,-8.28
2150.45,-64.47058823529412,-116.50980392156863,-129.49019607843138,-72.86,-61.09,-25.67
2150.5,-175.47058823529412,183.0,-67.49019607843137,33.57,-66.06,-46.25
2150.55,238.52941176470588,313.0,163.50980392156862,9.7,-52.93,-39.88
2150.6,-197.98039215686273,35.0,255.50980392156862,30.91,-46.56,-22.56
2150.65,41.01960784313726,19.0,-310.0,22.05,-28.68,-3.27
2150.7,-236.49019607843138,-78.0,-233.0,18.17,-7.22,7.11
2150.75,97.50980392156863,-94.0,-187.0,22.86,27.52,12.12
2150.8,193.50980392156862,-29.0,-187.0,-34.32,72.15,7.15
2150.85,240.50980392156862,-62.0,-172.0,-59.87,76.73,-3.1
2150.9,145.50980392156862,3.0,-110.0,-59.49,63.15,-15.8
2150.95,-124.49019607843137,133.0,-141.0,-25.12,50.27,2.46
2151.0,-315.4901960784314,215.0,-264.0,26.6,33.44,30.14
2151.05,263.01960784313724,133.0,-233.0,9.77,21.89,48.34
2151.1,311.01960784313724,68.0,-310.0,-8.39,-0.64,56.92
2151.15,-236.49019607843138,52.0,-279.0,3.05,-18.77,61.01
2151.2,-108.49019607843137,68.0,316.5098039215686,46.38,-35.43,50.58
2151.25,-172.49019607843138,150.0,286.5098039215686,37.84,-35.99,49.57
2151.3,-188.49019607843138,52.0,-295.0,47.85,-15.45,18.28
2151.35,247.01960784313727,68.0,-187.0,3.19,10.41,-4.08
2151.4,152.01960784313727,101.0,-156.0,-23.68,11.32,-10.52
2151.45,-299.4901960784314,68.0,-141.0,-24.24,2.99,-18.67
2151.5,-188.49019607843138,133.0,-187.0,-9.05,-2.5,-32.18
2151.55,-172.49019607843138,199.0,-249.0,20.86,-5.44,-38.8
2151.6,-156.49019607843138,183.0,-279.0,29.19,8.8,-35.65
2151.65,-188.49019607843138,150.0,-295.0,22.79,24.55,-21.72
2151.7,-252.49019607843138,117.0,286.5098039215686,28.84,39.84,-5.13
2151.75,-252.49019607843138,84.0,286.5098039215686,42.56,56.96,3.61
2151.8,-315.4901960784314,166.0,316.5098039215686,35.07,79.5,1.2
2151.85,247.01960784313727,101.0,286.5098039215686,14.49,95.56,-2.64
2151.9,247.01960784313727,101.0,-279.0,-11.47,101.09,1.3
2151.95,295.01960784313724,19.0,-141.0,-9.23,95.35,0.57
2152.0,-315.4901960784314,68.0,12.0,-12.1,87.3,-5.41
2152.05,-299.4901960784314,133.0,-95.0,-60.75,36.03,-55.98
2152.1,184.01960784313727,166.0,-218.0,-179.61,-83.0,-106.17
2152.15,-86.98039215686275,215.0,193.50980392156862,-123.36,-174.42,-115.13
2152.2,120.01960784313725,-247.50980392156862,98.01960784313725,30.87,-143.86,-93.26
2152.25,-38.98039215686274,-133.50980392156862,-209.98039215686273,-10.14,-102.95,-54.86
2152.3,168.01960784313727,264.0,282.01960784313724,25.83,-62.7,-46.74
2152.35,-188.49019607843138,183.0,-313.4901960784314,79.07,-38.02,-33.09
2152.4,-124.49019607843137,-312.5098039215686,-190.49019607843138,90.93,-16.29,-13.18
2152.45,-77.49019607843137,232.0,24.50980392156863,89.15,-2.15,3.51
2152.5,-45.490196078431374,166.0,101.50980392156863,63.14,19.12,23.53
2152.55,-188.49019607843138,52.0,193.50980392156862,45.47,19.02,45.65
2152.6,-140.49019607843138,3.0,239.50980392156862,20.97,12.26,64.06
2152.65,-267.4901960784314,-127.0,-264.0,-3.14,15.38,53.73
2152.7,57.01960784313726,-127.0,-187.0,-30.61,12.4,25.38
2152.75,57.01960784313726,-225.0,-18.0,-55.53,5.3,-35.79
2152.8,57.01960784313726,-111.0,-3.0,-52.21,-13.59,-64.98
2152.85,104.01960784313725,-45.0,-33.0,-42.06,-43.45,-82.62
2152.9,231.01960784313727,-78.0,-126.0,-49.16,-88.6,-90.46
2152.95,247.01960784313727,-13.0,-33.0,-45.66,-118.91,-94.97
2153.0,57.01960784313726,101.0,58.0,-52.59,-100.08,-83.88
2153.05,57.01960784313726,166.0,27.0,-47.34,-72.99,-70.19
2153.1,-77.49019607843137,-263.5098039215686,-95.0,-120.7,-15.94,-39.01
2153.15,113.50980392156863,313.0,270.5098039215686,-157.1,10.48,22.06
2153.2,224.50980392156862,-116.50980392156863,224.50980392156862,-147.83,31.27,108.44
2153.25,129.50980392156862,13.490196078431373,-144.49019607843138,-90.32,52.93,268.46
2153.3,-13.490196078431373,-285.01960784313724,190.01960784313727,40.95,90.17,-237.87
2153.35,-188.49019607843138,220.98039215686273,-132.98039215686273,159.53,219.18,-27.14
2153.4,-168.9607843137255,215.94117647058823,-155.9607843137255,262.33,295.38,9.05
2153.45,255.07843137254903,156.92156862745097,-167.47058823529412,-226.43,280.43,-210.89
2153.5,191.07843137254903,-284.078431372549,-221.49019607843138,-236.62,97.63,33.92
2153.55,-289.45098039215685,-209.52941176470588,-46.509803921568626,193.66,-263.6,-68.86
2153.6,-93.49019607843137,-268.96078431372547,-238.52941176470588,136.5,-228.53,-157.73
2153.65,-308.98039215686276,313.52941176470586,-23.529411764705884,-222.87,-130.25,-238.89
2153.7,-45.490196078431374,-23.49019607843137,10.96078431372549,-254.4,-98.26,-220.87
2153.75,-283.4901960784314,-204.01960784313727,77.49019607843137,-69.36,-155.31,-206.34
2153.8,145.50980392156862,-253.01960784313727,12.0,-165.75,-164.27,-191.82
2153.85,97.50980392156863,128.49019607843138,239.50980392156862,-20.39,-182.64,-156.29
2153.9,216.01960784313727,-138.01960784313727,-221.49019607843138,77.77,-179.67,-61.83
2153.95,-101.98039215686275,-236.01960784313727,5.019607843137255,-1.0,-150.27,53.98
2154.0,104.01960784313725,-18.50980392156863,-55.98039215686274,-39.82,-128.15,39.59
2154.05,-25.96078431372549,-67.50980392156863,113.01960784313725,113.02,-153.73,-1.8
2154.1,15.529411764705882,215.0,-206.49019607843138,126.07,-122.97,-18.29
2154.15,47.529411764705884,-29.0,-52.490196078431374,96.32,-109.14,-19.9
2154.2,-70.98039215686275,-94.0,209.50980392156862,29.19,-80.41,-14.19
2154.25,263.01960784313724,-143.0,209.50980392156862,-4.12,-47.75,-16.85
2154.3,49.509803921568626,-111.0,255.50980392156862,0.07,-21.71,-11.88
2154.35,304.5098039215686,-29.0,224.50980392156862,30.49,6.91,-2.15
2154.4,-211.0,52.0,239.50980392156862,-8.91,36.27,-10.62
2154.45,320.5098039215686,-13.0,270.5098039215686,-45.35,43.38,-54.72
2154.5,-156.49019607843138,183.0,-279.0,-83.81,70.61,-22.07
2154.55,-70.98039215686275,264.0,-310.0,-43.21,67.07,27.69
2154.6,231.01960784313727,35.0,-310.0,-16.79,72.57,53.63
2154.65,247.01960784313727,68.0,163.50980392156862,-10.98,64.1,53.03
2154.7,247.01960784313727,-13.0,116.50980392156863,67.31,61.61,42.15
2154.75,279.01960784313724,150.0,-36.490196078431374,97.69,54.75,30.42
2154.8,-140.49019607843138,101.0,-175.49019607843138,98.35,53.98,9.32
2154.85,-45.490196078431374,19.0,-83.49019607843137,88.13,53.77,-6.56
2154.9,34.509803921568626,150.0,-98.49019607843137,78.65,59.37,-4.08
2154.95,-45.490196078431374,199.0,-52.490196078431374,93.1,61.05,10.37
2155.0,34.509803921568626,199.0,86.50980392156863,107.35,71.13,26.4
2155.05,18.50980392156863,150.0,101.50980392156863,129.5,82.4,42.36
2155.1,-45.490196078431374,166.0,55.509803921568626,168.6,89.4,59.86
2155.15,-77.49019607843137,35.0,-160.49019607843138,174.48,117.26,69.38
2155.2,-236.49019607843138,-62.0,-298.4901960784314,85.12,147.54,38.3
2155.25,263.01960784313724,-176.0,-98.49019607843137,54.99,161.85,26.71
2155.3,-299.4901960784314,319.5098039215686,-52.490196078431374,39.45,174.8,8.9
2155.35,263.01960784313724,-274.0,-67.49019607843137,10.43,169.41,11.31
2155.4,311.01960784313724,-307.0,86.50980392156863,-11.19,159.65,9.11
2155.45,-283.4901960784314,205.50980392156862,-310.0,-57.81,120.8,28.04
2155.5,-188.49019607843138,58.509803921568626,43.0,-18.54,73.65,60.73
2155.55,-156.49019607843138,221.50980392156862,-95.0,-129.59,28.85,86.84
2155.6,18.50980392156863,308.01960784313724,196.0,-189.9,-147.99,59.26
2155.65,208.50980392156862,-285.4901960784314,-307.5098039215686,-261.65,-286.14,-89.09
2155.7,231.01960784313727,237.50980392156862,267.01960784313724,-160.81,312.07,-281.63
2155.75,-22.980392156862745,-18.50980392156863,221.01960784313727,-220.8,-273.22,-302.94
2155.8,-191.47058823529412,160.49019607843138,-55.98039215686274,-217.48,-229.58,-325.24
2155.85,-286.47058823529414,89.98039215686275,159.01960784313727,-214.85,-161.22,-312.08
2155.9,-159.47058823529412,-24.019607843137255,313.01960784313724,-194.27,-105.05,-259.93
2155.95,174.52941176470588,-187.01960784313727,267.01960784313724,-162.84,-75.3,-159.41
2156.0,88.01960784313725,-302.01960784313724,-206.49019607843138,-39.99,-49.26,-58.82
2156.05,-13.490196078431373,-318.01960784313724,282.01960784313724,7.88,-17.48,37.84
2156.1,2.5098039215686274,128.49019607843138,-52.490196078431374,-19.97,15.62,111.24
2156.15,-204.49019607843138,-133.50980392156862,86.50980392156863,-15.14,32.0,167.17
2156.2,168.01960784313727,-198.50980392156862,163.50980392156862,-0.51,41.98,230.38
2156.25,-70.98039215686275,281.0,147.50980392156862,51.87,50.31,254.0
2156.3,-229.98039215686273,264.0,116.50980392156863,44.17,66.97,250.75
2156.35,317.52941176470586,166.0,132.50980392156862,27.76,47.58,224.01
2156.4,104.01960784313725,84.0,132.50980392156862,10.89,6.77,184.46
2156.45,311.01960784313724,133.0,224.50980392156862,16.98,-21.36,134.48
2156.5,-236.49019607843138,199.0,55.509803921568626,66.82,-18.53,109.03
2156.55,-45.490196078431374,297.0,70.50980392156863,22.72,-20.0,66.89
2156.6,208.50980392156862,84.0,316.5098039215686,-16.05,-40.82,1.93
2156.65,288.5098039215686,133.0,286.5098039215686,7.77,-58.57,-55.07
2156.7,65.50980392156863,232.0,193.50980392156862,37.8,-104.52,-115.27
2156.75,-29.49019607843137,166.0,101.50980392156863,45.12,-117.47,-157.83
2156.8,216.01960784313727,117.0,-6.490196078431373,43.54,-98.43,-168.3
2156.85,184.01960784313727,35.0,-6.490196078431373,36.16,-85.83,-204.17
2156.9,-70.98039215686275,-29.0,101.50980392156863,-14.51,-64.48,-237.91
2156.95,206.52941176470588,35.0,86.50980392156863,-9.37,-53.56,-212.71
2157.0,301.52941176470586,150.0,86.50980392156863,-8.39,-62.77,-140.4
2157.05,-101.98039215686275,183.0,-249.0,-24.77,-99.94,-53.95
2157.1,104.01960784313725,-84.50980392156863,150.0,-142.05,-95.74,-46.99
2157.15,-61.490196078431374,-231.50980392156862,-215.50980392156862,-144.71,-40.93,-5.2
2157.2,-163.0,-318.01960784313724,-79.0,-266.83,-4.32,85.93
2157.25,-290.0,-100.50980392156863,-64.0,-246.39,-32.67,163.67
2157.3,-68.0,242.49019607843138,162.50980392156862,-90.74,-27.73,213.19
2157.35,-290.0,138.98039215686273,221.01960784313727,-59.87,-8.38,312.77
2157.4,-6.980392156862745,-192.52941176470588,82.01960784313725,30.59,49.01,-71.62
2157.45,38.03921568627451,-306.05882352941177,140.52941176470588,167.79,83.21,186.15
2157.5,-300.921568627451,-234.6078431372549,17.529411764705884,-256.39,159.09,-3.44
2157.55,96.07843137254902,-77.58823529411765,116.50980392156863,-108.76,115.79,239.16
2157.6,-91.94117647058823,79.96078431372548,-249.0,-281.56,-142.01,17.72
2157.65,285.52941176470586,-89.96078431372548,-146.52941176470588,1.89,-190.13,-209.25
2157.7,-318.47058823529414,-274.47058823529414,118.96078431372548,-90.57,-121.01,-321.98
2157.75,-38.98039215686274,308.01960784313724,-66.03921568627452,-208.52,-112.89,-323.35
2157.8,9.019607843137255,-51.509803921568626,292.4901960784314,-30.79,-186.28,-319.11
2157.85,-283.4901960784314,-84.50980392156863,-261.5098039215686,-40.94,-239.2,-274.28
2157.9,136.01960784313727,40.98039215686274,209.50980392156862,56.95,-238.92,-181.74
2157.95,-165.98039215686273,-171.01960784313727,-67.49019607843137,32.24,-180.3,-41.98
2158.0,-165.98039215686273,-24.019607843137255,-224.98039215686273,-32.4,-138.47,90.8
2158.05,25.019607843137255,-116.50980392156863,186.52941176470588,-43.53,-113.94,97.69
2158.1,-254.47058823529412,307.4901960784314,-24.980392156862745,80.05,-135.29,69.13
2158.15,31.529411764705884,-149.50980392156862,-267.4901960784314,112.21,-98.96,35.43
2158.2,317.52941176470586,3.0,-190.49019607843138,176.26,-67.21,4.56
2158.25,41.01960784313726,68.0,178.50980392156862,40.67,-45.02,1.86
2158.3,-252.49019607843138,-225.0,-310.0,-5.97,-27.52,-9.75
2158.35,-61.490196078431374,-192.0,-64.0,6.58,-4.6,-13.63
2158.4,18.50980392156863,-13.0,-264.0,51.28,12.61,-11.39
2158.45,177.50980392156862,117.0,286.5098039215686,35.04,33.26,-11.95
2158.5,193.50980392156862,199.0,286.5098039215686,-6.11,53.42,-44.36
2158.55,-13.490196078431373,35.0,-203.0,-88.43,75.86,-57.17
2158.6,231.01960784313727,199.0,-310.0,-125.57,74.95,-8.49
2158.65,263.01960784313724,133.0,-295.0,-37.47,36.1,30.63
2158.7,-172.49019607843138,133.0,209.50980392156862,5.78,30.6,5.01
2158.75,-188.49019607843138,248.0,116.50980392156863,13.37,11.39,-20.04
2158.8,-77.49019607843137,215.0,193.50980392156862,-20.01,-3.02,-23.01
2158.85,-45.490196078431374,101.0,116.50980392156863,5.36,-19.65,-14.33
2158.9,-77.49019607843137,183.0,86.50980392156863,62.58,-42.96,-7.47
2158.95,-252.49019607843138,248.0,55.509803921568626,48.51,-14.22,-3.24
2159.0,263.01960784313724,166.0,-52.490196078431374,45.82,7.89,7.92
2159.05,-252.49019607843138,183.0,193.50980392156862,-15.67,37.99,14.6
2159.1,295.01960784313724,35.0,209.50980392156862,-46.33,44.81,17.19
2159.15,247.01960784313727,150.0,255.50980392156862,-40.31,42.47,16.84
2159.2,279.01960784313724,166.0,239.50980392156862,-15.67,36.27,16.32
2159.25,311.01960784313724,183.0,270.5098039215686,-22.39,28.26,13.55
2159.3,-236.49019607843138,133.0,316.5098039215686,-32.4,21.92,5.92
2159.35,-172.49019607843138,117.0,286.5098039215686,-10.87,16.99,-10.59
2159.4,-93.49019607843137,166.0,239.50980392156862,-82.1,60.04,-52.41
2159.45,-77.49019607843137,35.0,24.50980392156863,-116.54,73.93,-63.19
2159.5,-61.490196078431374,183.0,101.50980392156863,-108.7,65.08,-44.01
2159.55,49.509803921568626,248.0,24.50980392156863,-24.59,64.1,-12.9
2159.6,-29.49019607843137,-198.50980392156862,-144.49019607843138,89.25,54.65,10.37
2159.65,-13.490196078431373,-165.50980392156862,-21.49019607843137,57.82,58.99,20.38
2159.7,-61.490196078431374,281.0,70.50980392156863,-21.97,79.25,25.98
2159.75,-267.4901960784314,183.0,116.50980392156863,-27.04,68.37,37.0
2159.8,-252.49019607843138,199.0,255.50980392156862,-0.79,48.8,47.54
2159.85,-124.49019607843137,84.0,147.50980392156862,55.55,30.22,33.26
2159.9,18.50980392156863,101.0,55.509803921568626,89.95,15.03,20.59
2159.95,65.50980392156863,101.0,24.50980392156863,78.72,-5.12,16.88
2160.0,81.50980392156863,-13.0,132.50980392156862,88.83,-46.42,40.15
2160.05,-172.49019607843138,52.0,-295.0,53.13,-55.56,63.95
2160.1,216.01960784313727,-176.0,-172.0,10.71,-44.81,50.79
2160.15,-172.49019607843138,-45.0,286.5098039215686,-116.26,-111.03,-38.48
2160.2,231.01960784313727,3.0,270.5098039215686,-225.49,-222.58,-165.5
2160.25,41.01960784313726,101.0,-252.49019607843138,-40.73,-202.7,-198.71
2160.3,-86.98039215686275,177.49019607843138,-28.470588235294116,17.12,-142.82,-162.24
2160.35,269.52941176470586,-18.50980392156863,217.52941176470588,17.99,-65.78,-98.61
2160.4,279.01960784313724,-198.50980392156862,-270.98039215686276,107.94,-16.19,-24.9
2160.45,-124.49019607843137,-116.50980392156863,-132.98039215686273,111.55,19.05,6.07
2160.5,-29.49019607843137,-312.5098039215686,-190.49019607843138,113.75,45.93,23.18
2160.55,-61.490196078431374,281.0,39.509803921568626,112.84,62.55,37.22
2160.6,-108.49019607843137,297.0,147.50980392156862,42.88,74.38,76.0
2160.65,-220.49019607843138,166.0,286.5098039215686,-10.03,69.31,117.02
2160.7,-299.4901960784314,150.0,270.5098039215686,-4.85,61.89,155.9
2160.75,263.01960784313724,166.0,224.50980392156862,20.23,58.11,181.8
2160.8,120.01960784313725,150.0,224.50980392156862,0.53,52.86,149.15
2160.85,-149.98039215686273,166.0,286.5098039215686,-50.56,43.48,122.83
2160.9,-315.4901960784314,183.0,209.50980392156862,-18.19,26.92,95.11
2160.95,-61.490196078431374,232.0,193.50980392156862,-44.19,27.17,66.62
2161.0,-61.490196078431374,-312.5098039215686,86.50980392156863,-38.7,11.35,44.71
2161.05,65.50980392156863,-263.5098039215686,70.50980392156863,-22.32,-5.37,17.9
2161.1,97.50980392156863,-214.50980392156862,101.50980392156863,5.67,-7.51,1.06
2161.15,65.50980392156863,-198.50980392156862,55.509803921568626,3.92,-6.67,-5.54
2161.2,65.50980392156863,-214.50980392156862,116.50980392156863,-46.57,0.36,-18.11
2161.25,113.50980392156863,-231.50980392156862,163.50980392156862,-37.09,-2.08,-34.59
2161.3,161.50980392156862,-51.509803921568626,178.50980392156862,-31.0,-15.63,-46.14
2161.35,224.50980392156862,30.49019607843137,116.50980392156863,14.42,-35.82,-53.0
2161.4,208.50980392156862,79.49019607843137,86.50980392156863,41.86,-45.03,-54.05
2161.45,129.50980392156862,46.490196078431374,70.50980392156863,34.69,-51.12,-57.73
2161.5,65.50980392156863,-67.50980392156863,101.50980392156863,15.05,-55.11,-67.53
2161.55,-45.490196078431374,-247.50980392156862,116.50980392156863,5.85,-51.64,-81.56
2161.6,-267.4901960784314,313.0,193.50980392156862,-19.48,-48.21,-110.44
2161.65,-299.4901960784314,84.0,255.50980392156862,-30.61,-45.13,-133.92
2161.7,41.01960784313726,68.0,-310.0,-20.11,-57.49,-139.07
2161.75,-22.980392156862745,19.0,-233.0,-19.06,-73.45,-126.57
2161.8,-181.98039215686273,19.0,-141.0,-112.16,-80.73,-102.32
2161.85,-165.98039215686273,19.0,212.0,-190.11,-84.65,-121.92
2161.9,72.01960784313725,264.0,89.0,-141.6,-53.11,-114.04
2161.95,-29.49019607843137,128.49019607843138,-95.0,-193.47,-1.49,-5.12
2162.0,27.0,242.49019607843138,116.50980392156863,-176.67,31.79,158.46
2162.05,217.0,73.98039215686275,-129.49019607843138,-113.7,53.56,311.3
2162.1,-147.0,-29.529411764705884,52.01960784313726,29.16,86.6,-134.48
2162.15,-86.98039215686275,-7.549019607843137,17.529411764705884,189.77,153.24,26.7
2162.2,-117.43137254901961,-240.58823529411765,-182.47058823529412,269.01,200.84,-74.45
2162.25,102.58823529411765,-39.07843137254902,5.019607843137255,-255.27,62.31,161.54
2162.3,248.5686274509804,199.47058823529412,-79.0,247.45,-157.38,-53.81
2162.35,-22.980392156862745,-29.470588235294116,234.98039215686273,172.69,-147.23,-156.46
2162.4,129.50980392156862,-241.47058823529412,299.47058823529414,-65.96,-103.72,-221.49
2162.45,-108.49019607843137,308.01960784313724,-281.03921568627453,-156.19,-103.86,-221.74
2162.5,-220.49019607843138,-13.0,230.49019607843138,-104.32,-139.35,-195.56
2162.55,-61.490196078431374,-182.50980392156862,120.0,-33.87,-179.43,-148.83
2162.6,65.50980392156863,128.49019607843138,178.50980392156862,-6.71,-183.94,-106.94
2162.65,-267.4901960784314,111.49019607843137,55.509803921568626,-8.32,-165.32,-59.2
2162.7,200.01960784313727,-116.50980392156863,221.01960784313727,101.5,-128.61,-0.85
2162.75,41.01960784313726,193.49019607843138,-240.98039215686273,-33.17,-88.22,17.23
2162.8,276.03921568627453,133.0,-206.49019607843138,85.86,-126.75,28.47
2162.85,-95.47058823529412,248.0,298.01960784313724,163.56,-115.62,21.36
2162.9,94.52941176470588,-13.0,-52.490196078431374,123.9,-96.83,1.9
2162.95,-181.98039215686273,-160.0,-279.0,3.64,-74.74,-13.31
2163.0,136.01960784313727,-258.0,-279.0,-24.49,-46.99,-20.87
2163.05,-315.4901960784314,-62.0,-249.0,-19.17,-12.48,-19.86
2163.1,-140.49019607843138,-62.0,316.5098039215686,-16.09,14.95,-16.88
2163.15,-140.49019607843138,52.0,316.5098039215686,-25.15,41.94,-11.25
2163.2,-61.490196078431374,35.0,255.50980392156862,-18.64,60.45,0.29
2163.25,-77.49019607843137,117.0,316.5098039215686,-1.46,63.39,10.58
2163.3,34.509803921568626,68.0,-279.0,-19.17,68.54,14.71
2163.35,81.50980392156863,52.0,-264.0,-61.52,76.45,2.99
2163.4,-156.49019607843138,-13.0,-79.0,-76.15,76.24,-5.65
2163.45,200.01960784313727,183.0,-126.0,-66.1,58.95,23.22
2163.5,216.01960784313727,166.0,-218.0,-27.78,31.82,37.88
2163.55,295.01960784313724,52.0,-310.0,-9.05,11.63,29.59
2163.6,-188.49019607843138,166.0,224.50980392156862,28.98,-7.82,4.91
2163.65,-45.490196078431374,183.0,193.50980392156862,38.29,-24.83,-14.96
2163.7,34.509803921568626,84.0,116.50980392156863,52.54,-40.69,-23.85
2163.75,-77.49019607843137,150.0,39.509803921568626,74.2,-37.22,-22.17
2163.8,-252.49019607843138,166.0,-67.49019607843137,77.07,-22.0,-3.16
2163.85,-220.49019607843138,150.0,-21.49019607843137,69.2,-5.48,12.86
2163.9,-156.49019607843138,117.0,-21.49019607843137,55.02,16.56,29.9
2163.95,-61.490196078431374,150.0,39.509803921568626,25.52,65.0,62.49
2164.0,-61.490196078431374,199.0,39.509803921568626,2.87,110.12,91.05
2164.05,200.01960784313727,-214.50980392156862,70.50980392156863,-66.45,132.27,128.67
2164.1,184.01960784313727,-280.5098039215686,-36.490196078431374,28.81,109.21,152.44
2164.15,-236.49019607843138,-263.5098039215686,-144.49019607843138,91.98,82.99,154.43
2164.2,-61.490196078431374,232.0,-129.49019607843138,120.68,59.79,129.62
2164.25,18.50980392156863,183.0,-21.49019607843137,130.97,51.42,89.79
2164.3,49.509803921568626,133.0,-36.490196078431374,112.95,55.76,45.44
2164.35,-29.49019607843137,199.0,86.50980392156863,99.02,60.07,30.99
2164.4,-140.49019607843138,264.0,70.50980392156863,99.65,64.79,34.8
2164.45,-108.49019607843137,248.0,-67.49019607843137,99.54,58.81,40.89
2164.5,-45.490196078431374,166.0,70.50980392156863,70.07,54.36,42.57
2164.55,-77.49019607843137,35.0,101.50980392156863,27.69,45.44,39.18
2164.6,-124.49019607843137,-78.0,178.50980392156862,0.32,29.06,31.41
2164.65,-45.490196078431374,-290.0,239.50980392156862,-76.81,14.01,15.31
2164.7,81.50980392156863,123.50980392156863,255.50980392156862,-268.89,-88.46,-27.94
2164.75,-13.490196078431373,-187.49019607843138,-233.0,-141.11,-188.67,-157.79
2164.8,-61.490196078431374,-296.5098039215686,21.019607843137255,-35.58,-223.25,-214.84
2164.85,-220.49019607843138,-198.50980392156862,236.01960784313727,-124.52,-198.57,-194.75
2164.9,120.01960784313725,-149.50980392156862,313.01960784313724,-63.27,-189.75,-194.51
2164.95,-38.98039215686274,-253.01960784313727,298.01960784313724,-103.06,-155.66,-187.23
2165.0,-181.98039215686273,193.49019607843138,-160.49019607843138,-126.55,-129.31,-173.79
2165.05,-54.98039215686274,144.49019607843138,-83.49019607843137,-123.33,-92.7,-144.7
2165.1,136.01960784313727,62.490196078431374,-67.49019607843137,-71.04,-68.16,-103.82
2165.15,-220.49019607843138,-2.5098039215686274,-83.49019607843137,-49.86,-23.78,-59.83
2165.2,-108.49019607843137,-116.50980392156863,-160.49019607843138,-70.09,30.0,-2.15
2165.25,-93.49019607843137,-214.50980392156862,9.509803921568627,-96.48,58.49,56.64
2165.3,-124.49019607843137,313.0,55.509803921568626,-100.51,71.93,88.39
2165.35,25.019607843137255,-231.50980392156862,-67.49019607843137,-66.94,19.15,118.21
2165.4,9.019607843137255,232.0,-21.49019607843137,14.04,-10.41,165.81
2165.45,25.019607843137255,-214.50980392156862,313.01960784313724,183.33,-6.56,199.9
2165.5,-252.49019607843138,-263.5098039215686,-113.49019607843137,89.36,44.91,182.96
2165.55,263.01960784313724,101.0,224.50980392156862,-16.12,60.45,137.11
2165.6,311.01960784313724,-13.0,-310.0,-46.96,51.25,92.66
2165.65,-204.49019607843138,133.0,301.5098039215686,-35.2,10.82,46.18
2165.7,-13.490196078431373,133.0,239.50980392156862,8.75,-30.99,6.91
2165.75,113.50980392156863,183.0,224.50980392156862,21.67,-63.05,-42.08
2165.8,-13.490196078431373,183.0,193.50980392156862,26.01,-69.18,-77.99
2165.85,-315.4901960784314,281.0,101.50980392156863,29.68,-62.95,-73.06
2165.9,-299.4901960784314,232.0,163.50980392156862,29.82,-65.75,-85.66
2165.95,295.01960784313724,199.0,239.50980392156862,-7.9,-51.47,-107.04
2166.0,120.01960784313725,297.0,163.50980392156862,3.96,-50.1,-122.83
2166.05,200.01960784313727,297.0,270.5098039215686,-2.44,-47.09,-122.27
2166.1,263.01960784313724,248.0,239.50980392156862,27.48,-41.07,-115.69
2166.15,231.01960784313727,248.0,239.50980392156862,16.28,-27.67,-106.69
2166.2,216.01960784313727,133.0,286.5098039215686,12.57,-22.38,-86.29
2166.25,168.01960784313727,101.0,-279.0,-17.0,-16.47,-74.77
2166.3,136.01960784313727,-78.0,-172.0,-32.01,-23.33,-67.6
2166.35,184.01960784313727,-78.0,-79.0,-23.75,-46.43,-61.65
2166.4,231.01960784313727,3.0,27.0,-35.41,-64.94,-50.31
2166.45,247.01960784313727,19.0,135.0,-33.45,-74.99,-26.65
2166.5,-93.49019607843137,183.0,27.0,-120.84,-49.37,-7.5
2166.55,240.50980392156862,183.0,-95.0,-227.73,-17.55,46.07
2166.6,288.5098039215686,-280.5098039215686,-310.0,-209.71,-7.89,152.82
2166.65,-259.0,111.49019607843137,86.50980392156863,-175.93,0.29,287.08
2166.7,34.509803921568626,-73.01960784313725,-298.4901960784314,-148.67,11.63,-249.1
2166.75,231.01960784313727,-61.529411764705884,98.01960784313725,-85.7,-19.55,-66.3
2166.8,-111.47058823529412,-257.05882352941177,6.019607843137255,98.39,-103.13,8.6
2166.85,-155.94117647058823,-295.0980392156863,-141.0,-245.61,-50.24,-89.5
2166.9,-225.45098039215685,-224.58823529411765,120.0,-103.02,54.96,285.51
2166.95,-311.96078431372547,-154.54901960784315,227.0,-5.51,35.25,-59.41
2167.0,110.52941176470588,178.01960784313727,243.0,72.73,-246.7,-207.84
2167.05,31.529411764705884,-121.96078431372548,179.9607843137255,132.2,-162.42,-296.08
2167.1,301.52941176470586,161.01960784313727,222.47058823529412,-193.36,-173.3,326.45
2167.15,-245.98039215686273,248.0,22.470588235294116,67.52,-219.61,322.99
2167.2,-101.98039215686275,128.49019607843138,119.0,47.18,-264.72,-257.75
2167.25,-260.98039215686276,-236.01960784313727,86.50980392156863,-22.81,-226.47,-154.89
2167.3,-260.98039215686276,62.490196078431374,267.01960784313724,-36.35,-180.83,-60.04
2167.35,247.01960784313727,95.49019607843137,-193.98039215686273,-7.09,-142.26,11.6
2167.4,-299.4901960784314,-2.5098039215686274,-209.98039215686273,-3.8,-91.93,64.76
2167.45,-188.49019607843138,-312.5098039215686,-163.98039215686273,-15.46,-84.33,66.2
2167.5,245.0392156862745,150.0,252.01960784313727,46.03,-103.06,81.46
2167.55,110.52941176470588,-307.0,-252.49019607843138,47.99,-89.44,70.96
2167.6,15.529411764705882,237.50980392156862,86.50980392156863,56.91,-84.51,23.46
2167.65,-260.98039215686276,107.50980392156863,239.50980392156862,20.41,-48.35,-8.87
2167.7,72.01960784313725,-307.0,-279.0,9.56,-30.47,-21.82
2167.75,-156.49019607843138,-290.0,-218.0,12.53,-10.24,-22.9
2167.8,-29.49019607843137,-78.0,-218.0,26.43,11.73,-23.01
2167.85,18.50980392156863,35.0,-233.0,-8.21,28.6,-13.17
2167.9,49.509803921568626,52.0,-264.0,-22.56,49.39,17.13
2167.95,161.50980392156862,166.0,-310.0,-42.62,69.27,39.77
2168.0,161.50980392156862,117.0,-264.0,-65.75,64.79,10.48
2168.05,-188.49019607843138,150.0,-233.0,-96.48,59.82,15.38
2168.1,200.01960784313727,232.0,301.5098039215686,-18.78,28.25,55.24
2168.15,-236.49019607843138,166.0,209.50980392156862,45.89,2.77,78.76
2168.2,-252.49019607843138,183.0,147.50980392156862,62.13,-15.0,73.51
2168.25,-299.4901960784314,150.0,209.50980392156862,45.26,-36.31,63.78
2168.3,-156.49019607843138,101.0,255.50980392156862,61.6,-51.4,48.7
2168.35,2.5098039215686274,84.0,239.50980392156862,69.83,-52.52,23.25
2168.4,-108.49019607843137,101.0,301.5098039215686,64.96,-37.43,8.69
2168.45,-204.49019607843138,133.0,224.50980392156862,79.28,-8.7,-16.29
2168.5,-299.4901960784314,117.0,255.50980392156862,43.02,32.66,-32.67
2168.55,57.01960784313726,133.0,255.50980392156862,-59.21,64.69,-32.95
2168.6,-86.98039215686275,3.0,-249.0,-115.7,59.37,-11.39
2168.65,136.01960784313727,52.0,-280.0,-66.03,55.03,-2.78
2168.7,-220.49019607843138,166.0,224.50980392156862,35.67,40.26,-25.42
2168.75,-13.490196078431373,297.0,193.50980392156862,30.1,44.91,-37.46
2168.8,34.509803921568626,150.0,178.50980392156862,23.1,38.65,-47.79
2168.85,65.50980392156863,150.0,224.50980392156862,3.36,43.3,-45.79
2168.9,-13.490196078431373,150.0,209.50980392156862,41.02,44.98,-35.5
2168.95,-45.490196078431374,199.0,132.50980392156862,62.13,42.92,-24.02
2169.0,-61.490196078431374,215.0,163.50980392156862,54.15,44.74,-2.22
2169.05,-156.49019607843138,84.0,163.50980392156862,37.21,48.59,17.37
2169.1,-188.49019607843138,52.0,178.50980392156862,-8.74,41.1,49.29
2169.15,2.5098039215686274,-45.0,-295.0,16.63,5.61,37.5
2169.2,-45.490196078431374,-62.0,-126.0,-12.69,-12.09,18.7
2169.25,-299.4901960784314,84.0,12.0,-15.04,-26.55,35.92
2169.3,152.01960784313727,-45.0,89.0,-95.47,-27.63,56.36
2169.35,-86.98039215686275,-78.0,-110.0,-158.57,-92.77,-9.32
2169.4,285.52941176470586,-45.0,-156.0,-187.97,-196.75,-124.3
2169.45,-64.47058823529412,297.0,9.509803921568627,4.97,-195.84,-158.88
2169.5,-127.47058823529412,144.49019607843138,171.52941176470588,66.61,-147.02,-103.4
2169.55,94.52941176470588,-214.50980392156862,201.52941176470588,-36.77,-87.59,-75.12
2169.6,57.01960784313726,133.0,206.01960784313727,39.2,-34.18,-81.88
2169.65,-156.49019607843138,-296.5098039215686,-55.98039215686274,166.08,-1.52,-91.61
2169.7,49.509803921568626,-165.50980392156862,236.01960784313727,112.28,43.93,-67.46
2169.75,-124.49019607843137,199.0,-129.49019607843138,101.26,97.38,-31.2
2169.8,-283.4901960784314,264.0,-160.49019607843138,14.21,133.71,27.1
2169.85,-315.4901960784314,117.0,70.50980392156863,-76.43,152.26,99.87
2169.9,263.01960784313724,35.0,255.50980392156862,-98.06,145.96,177.01
2169.95,184.01960784313727,150.0,270.5098039215686,-60.78,117.15,199.3
2170.0,41.01960784313726,166.0,255.50980392156862,-53.99,93.46,190.34
2170.05,-22.980392156862745,232.0,-279.0,-9.51,61.75,165.95
2170.1,-252.49019607843138,215.0,-218.0,14.46,32.45,112.85
2170.15,-140.49019607843138,199.0,-203.0,-8.81,8.41,44.95
2170.2,-140.49019607843138,183.0,-218.0,-38.73,-18.39,-1.52
2170.25,-93.49019607843137,215.0,-295.0,-34.22,-55.88,-40.54
2170.3,34.509803921568626,183.0,316.5098039215686,-5.13,-86.15,-80.13
2170.35,34.509803921568626,232.0,209.50980392156862,18.06,-104.6,-115.69
2170.4,-188.49019607843138,199.0,255.50980392156862,6.48,-111.04,-143.41
2170.45,216.01960784313727,150.0,193.50980392156862,19.71,-102.95,-154.82
2170.5,-6.980392156862745,68.0,224.50980392156862,-23.93,-88.01,-155.8
2170.55,-197.98039215686273,-13.0,239.50980392156862,-59.17,-93.96,-160.8
2170.6,-292.98039215686276,3.0,-156.0,-122.17,-99.98,-139.66
2170.65,-292.98039215686276,199.0,-3.0,-180.76,-103.13,-110.86
2170.7,-149.98039215686273,-182.50980392156862,12.0,-246.0,-78.0,-99.45
2170.75,-220.49019607843138,144.49019607843138,58.0,-241.38,-23.82,-1.48
2170.8,-290.0,-8.019607843137255,-295.0,-239.14,1.58,150.3
2170.85,297.0,171.98039215686273,-144.49019607843138,-139.95,1.02,300.94
2170.9,-123.50980392156863,-94.52941176470588,221.01960784313727,-42.3,-7.82,-131.15
2170.95,97.50980392156863,-170.54901960784315,236.01960784313727,-28.2,-92.73,41.68
2171.0,-120.96078431372548,107.92156862745098,73.0,167.76,-216.42,78.81
2171.05,-205.92156862745097,-152.6078431372549,184.49019607843138,-31.9,-131.83,-161.85
2171.1,200.5686274509804,189.92156862745097,-61.509803921568626,-81.53,-116.95,53.42
2171.15,-50.450980392156865,-247.50980392156862,264.98039215686276,-49.86,-267.17,-143.06
2171.2,-213.98039215686273,160.54901960784315,-246.54901960784315,-76.22,-125.42,-270.91
2171.25,79.52941176470588,-34.98039215686274,218.98039215686273,-152.34,-106.63,314.97
2171.3,49.509803921568626,270.5098039215686,187.98039215686273,-160.15,-107.54,323.86
2171.35,200.01960784313727,258.4901960784314,-153.50980392156862,-80.98,-130.92,-288.55
2171.4,-252.49019607843138,62.490196078431374,-3.0,17.08,-182.33,-234.41
2171.45,-236.49019607843138,-236.01960784313727,270.5098039215686,6.41,-200.67,-187.82
2171.5,-6.980392156862745,13.490196078431373,39.509803921568626,45.75,-178.45,-117.72
2171.55,-133.98039215686273,30.49019607843137,159.01960784313727,58.94,-94.1,-0.89
2171.6,120.01960784313725,-149.50980392156862,-40.98039215686274,-4.08,-16.85,27.59
2171.65,-223.47058823529412,215.0,-283.4901960784314,-52.63,-13.6,50.59
2171.7,-159.47058823529412,35.0,-129.49019607843138,35.14,-30.19,62.35
2171.75,206.52941176470588,19.0,-36.490196078431374,64.09,-29.56,44.81
2171.8,269.52941176470586,-160.0,270.5098039215686,-2.23,-17.45,30.78
2171.85,-117.98039215686275,-225.0,-233.0,-19.38,-11.81,16.67
2171.9,295.01960784313724,-225.0,-172.0,-19.06,3.3,2.74
2171.95,-156.49019607843138,-143.0,-187.0,-18.57,16.07,-3.58
2172.0,49.509803921568626,-45.0,-126.0,-41.78,27.69,-6.28
2172.05,161.50980392156862,-62.0,-79.0,-15.98,31.89,0.99
2172.1,224.50980392156862,52.0,-95.0,3.71,33.54,13.24
2172.15,224.50980392156862,101.0,-172.0,-9.61,23.7,-12.12
2172.2,81.50980392156863,68.0,-64.0,-42.65,15.2,-48.31
2172.25,-315.4901960784314,166.0,-141.0,-45.7,18.0,-34.7
2172.3,200.01960784313727,199.0,255.50980392156862,12.78,4.21,-8.52
2172.35,295.01960784313724,166.0,239.50980392156862,-2.93,3.23,4.7
2172.4,311.01960784313724,101.0,163.50980392156862,0.81,1.79,2.57
2172.45,-236.49019607843138,150.0,178.50980392156862,28.91,-3.41,-0.64
2172.5,-172.49019607843138,166.0,147.50980392156862,40.81,-5.16,-4.11
2172.55,-220.49019607843138,117.0,101.50980392156863,72.87,-2.05,1.2
2172.6,-283.4901960784314,150.0,55.509803921568626,79.52,8.13,13.66
2172.65,-188.49019607843138,52.0,9.509803921568627,90.86,22.16,19.05
2172.7,-124.49019607843137,117.0,-6.490196078431373,87.19,34.94,23.92
2172.75,-140.49019607843138,52.0,86.50980392156863,80.12,46.03,28.19
2172.8,-124.49019607843137,68.0,86.50980392156863,102.69,49.88,29.59
2172.85,-108.49019607843137,84.0,86.50980392156863,103.92,68.71,39.7
2172.9,-220.49019607843138,68.0,86.50980392156863,93.17,75.92,49.01
2172.95,-252.49019607843138,35.0,132.50980392156862,91.77,78.97,55.52
2173.0,-252.49019607843138,52.0,116.50980392156863,98.35,83.17,53.63
2173.05,-315.4901960784314,52.0,147.50980392156862,83.06,89.43,57.34
2173.1,311.01960784313724,19.0,147.50980392156862,68.6,93.49,64.27
2173.15,295.01960784313724,-29.0,116.50980392156863,59.26,95.21,69.45
2173.2,295.01960784313724,-13.0,101.50980392156863,62.76,92.02,78.94
2173.25,-315.4901960784314,-78.0,70.50980392156863,62.02,85.13,88.04
2173.3,-267.4901960784314,-94.0,86.50980392156863,56.67,77.29,90.03
2173.35,-252.49019607843138,-94.0,101.50980392156863,39.2,69.34,75.93
2173.4,-188.49019607843138,-62.0,239.50980392156862,11.83,71.93,62.59
2173.45,-252.49019607843138,-78.0,-233.0,-68.66,74.56,45.69
2173.5,-220.49019607843138,303.5098039215686,-279.0,-259.9,6.41,-1.76
2173.55,-38.98039215686274,286.5098039215686,-95.0,-217.97,-152.97,-99.52
2173.6,65.50980392156863,-45.0,-113.49019607843137,-102.08,-190.21,-195.7
2173.65,129.50980392156862,-296.5098039215686,21.019607843137255,-129.87,-173.62,-190.1
2173.7,-220.49019607843138,111.49019607843137,190.01960784313727,-114.3,-132.32,-188.42
2173.75,184.01960784313727,95.49019607843137,175.01960784313727,-119.72,-97.32,-174.38
2173.8,263.01960784313724,209.49019607843138,206.01960784313727,-122.52,-66.41,-153.8
2173.85,200.01960784313727,144.49019607843138,-252.49019607843138,-123.05,-37.05,-117.96
2173.9,295.01960784313724,62.490196078431374,-67.49019607843137,-91.06,-25.01,-92.06
2173.95,-188.49019607843138,46.490196078431374,9.509803921568627,-57.88,-14.09,-70.89
2174.0,-108.49019607843137,-84.50980392156863,86.50980392156863,-30.72,5.26,-40.16
2174.05,-108.49019607843137,-182.50980392156862,39.509803921568626,10.05,13.59,-28.01
2174.1,-172.49019607843138,-247.50980392156862,39.509803921568626,-94.7,50.93,26.61
2174.15,-6.980392156862745,183.0,-21.49019607843137,-82.34,17.4,94.72
2174.2,-188.49019607843138,133.0,55.509803921568626,36.93,-18.36,125.66
2174.25,-108.49019607843137,-312.5098039215686,-129.49019607843138,117.18,2.0,134.17
2174.3,184.01960784313727,297.0,-160.49019607843138,69.76,28.25,136.44
2174.35,231.01960784313727,3.0,193.50980392156862,-21.51,23.98,102.35
2174.4,-299.4901960784314,-143.0,286.5098039215686,-47.52,-0.61,42.54
2174.45,-172.49019607843138,-209.0,286.5098039215686,-43.11,-26.02,-16.15
2174.5,-252.49019607843138,-274.0,270.5098039215686,19.5,-56.65,-84.61
2174.55,184.01960784313727,-258.0,224.50980392156862,19.04,-72.36,-131.68
2174.6,-22.980392156862745,-143.0,270.5098039215686,8.61,-88.25,-158.04
2174.65,-54.98039215686274,-78.0,-264.0,-23.68,-106.56,-151.6
2174.7,-197.98039215686273,166.0,-126.0,-61.34,-110.97,-108.51
2174.75,-54.98039215686274,-198.50980392156862,-156.0,-97.88,-87.87,-82.65
2174.8,-252.49019607843138,128.49019607843138,12.0,-200.54,-8.91,-2.57
2174.85,-243.0,258.4901960784314,-249.0,-219.75,26.92,139.17
2174.9,217.0,-122.01960784313725,70.50980392156863,-116.68,31.44,266.29
2174.95,-250.50980392156862,-8.019607843137255,267.01960784313724,-43.32,79.32,-290.3
2175.0,113.50980392156863,-312.03921568627453,-132.98039215686273,37.91,78.65,-111.73
2175.05,31.529411764705884,211.4313725490196,-240.98039215686273,229.53,63.67,-27.73
2175.1,105.56862745098039,243.90196078431373,236.01960784313727,-221.15,127.83,-157.4
2175.15,-196.4313725490196,-224.58823529411765,-67.49019607843137,-55.0,107.53,47.4
2175.2,51.05882352941177,-73.01960784313725,-33.0,224.11,-205.85,-79.71
2175.25,-101.98039215686275,-170.9607843137255,22.470588235294116,139.76,-183.17,-182.29
2175.3,285.52941176470586,19.529411764705884,-7.529411764705882,-115.49,-154.47,-300.17
2175.35,184.01960784313727,-274.0,-69.52941176470588,-49.06,-167.6,-319.77
2175.4,184.01960784313727,160.49019607843138,-92.50980392156863,27.65,-226.4,-300.07
2175.45,279.01960784313724,-67.50980392156863,-203.0,-19.48,-236.27,-248.83
2175.5,136.01960784313727,177.49019607843138,209.50980392156862,-35.48,-216.28,-157.02
2175.55,-117.98039215686275,62.490196078431374,-267.4901960784314,16.42,-162.7,-51.5
2175.6,168.01960784313727,226.49019607843138,113.01960784313725,14.07,-111.63,33.58
2175.65,152.01960784313727,-84.50980392156863,-86.98039215686275,-70.02,-57.07,67.91
2175.7,-143.47058823529412,-247.50980392156862,-9.980392156862745,26.43,-87.24,91.85
2175.75,-254.47058823529412,-312.5098039215686,252.01960784313727,76.13,-82.41,100.81
2175.8,-111.47058823529412,-241.0,-252.49019607843138,114.94,-69.28,68.75
2175.85,94.52941176470588,254.50980392156862,224.50980392156862,37.84,-41.07,44.67
2175.9,-197.98039215686273,237.50980392156862,-295.0,10.43,-29.84,15.76
2175.95,279.01960784313724,270.5098039215686,-187.0,-20.29,-7.75,-1.03
2176.0,-220.49019607843138,-209.0,-156.0,-35.79,17.86,-17.76
2176.05,-29.49019607843137,-160.0,-172.0,-31.63,38.82,-28.47
2176.1,2.5098039215686274,-13.0,-95.0,-19.55,50.58,-22.17
2176.15,113.50980392156863,52.0,-156.0,-20.25,53.7,2.88
2176.2,240.50980392156862,84.0,-203.0,-27.92,59.19,7.15
2176.25,177.50980392156862,150.0,-233.0,-54.9,48.06,-25.07
2176.3,-108.49019607843137,166.0,-264.0,-78.81,45.23,-17.09
2176.35,311.01960784313724,281.0,270.5098039215686,-26.8,22.41,21.68
2176.4,-252.49019607843138,133.0,163.50980392156862,5.29,-3.27,40.93
2176.45,-267.4901960784314,232.0,39.509803921568626,48.97,-18.71,49.68
2176.5,-252.49019607843138,166.0,86.50980392156863,72.07,-27.56,54.82
2176.55,-156.49019607843138,166.0,86.50980392156863,65.7,-34.46,54.79
2176.6,-93.49019607843137,117.0,132.50980392156862,76.41,-37.85,43.24
2176.65,-108.49019607843137,133.0,178.50980392156862,45.29,-18.5,33.82
2176.7,311.01960784313724,101.0,163.50980392156862,51.73,-7.12,33.65
2176.75,-204.49019607843138,150.0,239.50980392156862,31.26,15.83,14.57
2176.8,279.01960784313724,84.0,301.5098039215686,-25.43,51.14,-8.8
2176.85,-22.980392156862745,150.0,286.5098039215686,-66.07,62.27,-4.04
2176.9,136.01960784313727,84.0,286.5098039215686,-62.11,52.79,5.47
2176.95,-267.4901960784314,133.0,270.5098039215686,-13.29,41.9,-0.19
2177.0,-124.49019607843137,150.0,209.50980392156862,22.72,43.02,-12.89
2177.05,2.5098039215686274,183.0,193.50980392156862,15.44,43.3,-29.27
2177.1,49.509803921568626,68.0,224.50980392156862,-3.66,50.41,-39.28
2177.15,-45.490196078431374,117.0,132.50980392156862,22.19,50.16,-42.19
2177.2,2.5098039215686274,166.0,70.50980392156863,28.25,60.28,-37.57
2177.25,-124.49019607843137,183.0,24.50980392156863,46.94,55.97,-29.69
2177.3,-13.490196078431373,166.0,24.50980392156863,55.72,56.53,-17.72
2177.35,-93.49019607843137,133.0,55.509803921568626,69.69,53.38,-12.33
2177.4,-77.49019607843137,150.0,86.50980392156863,51.77,50.51,-0.47
2177.45,-108.49019607843137,52.0,239.50980392156862,7.07,43.58,13.91
2177.5,-220.49019607843138,3.0,-187.0,-52.42,30.7,20.24
2177.55,263.01960784313724,-143.0,104.0,-76.95,13.48,21.54
2177.6,279.01960784313724,-78.0,43.0,-134.18,-69.63,-38.58
2177.65,200.01960784313727,-29.0,-33.0,-175.93,-217.65,-164.23
2177.7,-181.98039215686273,150.0,147.50980392156862,-97.95,-262.24,-230.14
2177.75,206.52941176470588,-100.50980392156863,-255.98039215686273,23.98,-190.03,-153.31
2177.8,-238.47058823529412,-198.50980392156862,232.52941176470588,-49.72,-133.09,-117.16
2177.85,41.01960784313726,84.0,-24.980392156862745,53.2,-59.83,-73.69
2177.9,295.01960784313724,-67.50980392156863,263.52941176470586,72.45,-5.13,-34.84
2177.95,-252.49019607843138,-231.50980392156862,267.01960784313724,38.57,59.51,7.08
2178.0,-299.4901960784314,248.0,-175.49019607843138,120.65,72.95,29.45
2178.05,-108.49019607843137,-231.50980392156862,86.50980392156863,100.17,70.22,46.14
2178.1,-77.49019607843137,248.0,132.50980392156862,72.8,66.26,77.57
2178.15,-172.49019607843138,215.0,178.50980392156862,46.2,76.9,116.32
2178.2,216.01960784313727,183.0,163.50980392156862,40.01,86.7,156.95
2178.25,88.01960784313725,150.0,178.50980392156862,12.85,87.58,194.75
2178.3,41.01960784313726,52.0,301.5098039215686,-3.21,77.74,178.55
2178.35,-149.98039215686273,19.0,-218.0,-45.03,64.55,150.83
2178.4,104.01960784313725,-62.0,-218.0,-9.02,27.27,92.52
2178.45,-204.49019607843138,-160.0,-95.0,-38.21,-8.56,21.75
2178.5,-267.4901960784314,-192.0,-95.0,-10.84,-57.03,-64.8
2178.55,-299.4901960784314,-78.0,-141.0,-7.16,-92.03,-129.06
2178.6,-299.4901960784314,-13.0,-279.0,31.61,-113.17,-176.94
2178.65,88.01960784313725,52.0,-310.0,-5.52,-122.66,-200.32
2178.7,-229.98039215686273,68.0,-295.0,-31.14,-127.77,-197.87
2178.75,222.52941176470588,117.0,-203.0,-68.83,-142.68,-143.76
2178.8,190.52941176470588,-214.50980392156862,-156.0,-57.98,-154.26,-107.99
2178.85,-101.98039215686275,46.490196078431374,-110.0,-124.55,-111.11,-76.07
2178.9,-172.49019607843138,193.49019607843138,-264.0,-269.24,-12.34,5.58
2178.95,256.5098039215686,13.490196078431373,255.50980392156862,-281.0,12.05,126.75
2179.0,-84.0,-155.01960784313727,-52.490196078431374,-69.08,17.61,277.35
2179.05,-195.0,285.98039215686276,190.01960784313727,58.14,-16.08,-293.52
2179.1,-93.49019607843137,-225.52941176470588,144.01960784313727,210.35,-36.07,-256.59
2179.15,190.52941176470588,-263.03921568627453,36.01960784313726,-301.3,107.91,-213.89
2179.2,92.54901960784314,-246.5686274509804,-40.98039215686274,-312.88,270.38,-178.16
2179.25,-53.431372549019606,91.92156862745098,190.01960784313727,-315.51,-294.89,315.71
2179.3,9.568627450980392,-78.05882352941177,-252.49019607843138,234.29,129.26,-148.8
2179.35,-25.96078431372549,-264.45098039215685,-261.5098039215686,177.07,-201.13,-247.5
2179.4,126.52941176470588,35.529411764705884,-289.01960784313724,206.43,-183.24,-220.76
2179.45,152.01960784313727,-285.4901960784314,-189.0392156862745,-117.13,-236.72,-275.53
2179.5,-315.4901960784314,-263.5098039215686,-297.03921568627453,78.47,-231.96,-237.0
2179.55,-70.98039215686275,128.49019607843138,-79.0,164.85,-278.06,-171.65
2179.6,279.01960784313724,13.490196078431373,316.5098039215686,-34.95,-237.6,-81.39
2179.65,-6.980392156862745,30.49019607843137,-52.490196078431374,-114.61,-188.74,-9.29
2179.7,-54.98039215686274,-198.50980392156862,113.01960784313725,-126.76,-120.7,22.83
2179.75,-283.4901960784314,215.0,236.01960784313727,-92.21,-66.8,66.23
2179.8,-220.49019607843138,95.49019607843137,-286.98039215686276,-38.31,-44.26,135.95
2179.85,86.03921568627452,258.4901960784314,-194.98039215686273,69.76,-28.09,207.49
2179.9,-48.470588235294116,-198.50980392156862,-55.98039215686274,109.24,15.9,251.7
2179.95,197.0392156862745,281.0,313.01960784313724,60.38,27.38,215.19
2180.0,-95.47058823529412,-78.0,101.50980392156863,25.1,21.39,160.28
2180.05,-260.98039215686276,-127.0,-279.0,12.57,8.3,105.75
2180.1,263.01960784313724,-127.0,-156.0,3.82,2.28,57.17
2180.15,-188.49019607843138,-160.0,-64.0,-9.79,-3.27,17.37
2180.2,-13.490196078431373,-160.0,-64.0,-0.23,-6.28,-26.09
2180.25,129.50980392156862,-78.0,-49.0,-16.12,-6.42,-52.27
2180.3,208.50980392156862,-29.0,-126.0,12.01,-11.53,-86.22
2180.35,224.50980392156862,19.0,-126.0,-23.96,-30.05,-144.56
2180.4,-29.49019607843137,52.0,27.0,-15.77,-53.85,-220.16
2180.45,136.01960784313727,-165.50980392156862,-126.0,-3.98,-75.76,-224.15
2180.5,104.01960784313725,-296.5098039215686,-310.0,15.33,-53.64,-170.81
2180.55,-70.98039215686275,-247.50980392156862,86.50980392156863,-51.96,-29.38,-105.43
2180.6,120.01960784313725,-296.5098039215686,101.50980392156863,-98.58,-9.01,-56.96
2180.65,295.01960784313724,297.0,86.50980392156863,-55.22,8.2,-19.65
2180.7,-188.49019607843138,-198.50980392156862,-160.49019607843138,83.83,1.48,21.75
2180.75,49.509803921568626,-67.50980392156863,-206.49019607843138,92.61,20.87,51.32
2180.8,97.50980392156863,281.0,-113.49019607843137,115.57,38.54,69.45
2180.85,65.50980392156863,313.0,9.509803921568627,110.81,70.71,83.7
2180.9,-61.490196078431374,183.0,39.509803921568626,100.94,103.26,92.24
2180.95,-299.4901960784314,232.0,101.50980392156863,61.6,134.72,110.09
2181.0,72.01960784313725,117.0,147.50980392156862,47.53,141.83,125.14
2181.05,136.01960784313727,101.0,132.50980392156862,77.91,135.98,124.4
2181.1,168.01960784313727,150.0,116.50980392156863,55.58,160.45,128.71
2181.15,72.01960784313725,166.0,-21.49019607843137,10.85,179.17,151.98
2181.2,-22.980392156862745,183.0,-98.49019607843137,-16.79,170.14,173.61
2181.25,136.01960784313727,264.0,-160.49019607843138,22.4,139.48,172.74
2181.3,279.01960784313724,215.0,-113.49019607843137,80.99,103.89,151.25
2181.35,-267.4901960784314,264.0,39.509803921568626,58.0,83.8,117.79
2181.4,-236.49019607843138,52.0,116.50980392156863,28.42,64.06,86.32
2181.45,-61.490196078431374,-29.0,162.50980392156862,-54.55,3.44,35.29
2181.5,113.50980392156863,-290.0,239.50980392156862,-246.42,-101.83,0.92
2181.55,-299.4901960784314,-268.4901960784314,-79.0,-77.06,-210.16,-171.69
2181.6,320.5098039215686,-13.0,313.01960784313724,-32.43,-260.17,-287.15
2181.65,304.5098039215686,199.0,-37.490196078431374,-80.87,-220.13,-309.62
2181.7,216.01960784313727,-231.50980392156862,-129.49019607843138,-78.6,-181.0,-271.26
2181.75,-22.980392156862745,-155.01960784313727,282.01960784313724,-127.67,-146.7,-253.66
2181.8,-86.98039215686275,-204.01960784313727,267.01960784313724,-151.36,-117.09,-236.89
2181.85,-260.98039215686276,-253.01960784313727,-129.49019607843138,-178.49,-82.93,-194.37
2181.9,-54.98039215686274,242.49019607843138,-129.49019607843138,-78.28,-69.39,-139.28
2181.95,231.01960784313727,209.49019607843138,-36.490196078431374,-15.28,-41.35,-73.83
2182.0,-188.49019607843138,-2.5098039215686274,-98.49019607843137,-34.22,7.6,-10.16
2182.05,-252.49019607843138,-133.50980392156862,-6.490196078431373,-76.53,28.32,48.07
2182.1,311.01960784313724,-280.5098039215686,70.50980392156863,-156.47,48.48,121.81
2182.15,136.01960784313727,199.0,101.50980392156863,-12.38,-28.58,161.64
2182.2,-124.49019607843137,264.0,-6.490196078431373,85.89,-43.7,139.38
2182.25,72.01960784313725,133.0,-129.49019607843138,98.95,-28.89,107.64
2182.3,200.01960784313727,-160.0,86.50980392156863,22.09,-8.56,66.16
2182.35,-299.4901960784314,156.50980392156862,-310.0,-32.22,-6.67,-4.42
2182.4,-267.4901960784314,221.50980392156862,316.5098039215686,10.01,-34.84,-61.37
2182.45,247.01960784313727,-225.0,255.50980392156862,10.26,-48.25,-84.29
2182.5,41.01960784313726,-127.0,255.50980392156862,2.87,-66.48,-96.12
2182.55,88.01960784313725,-94.0,-187.0,2.8,-84.09,-98.54
2182.6,72.01960784313725,68.0,-156.0,-11.68,-89.51,-85.38
2182.65,279.01960784313724,232.0,-203.0,-58.51,-63.96,-61.02
2182.7,-124.49019607843137,-312.5098039215686,-233.0,-79.72,-3.45,-3.97
2182.75,-77.49019607843137,95.49019607843137,301.5098039215686,-172.43,50.3,108.2
2182.8,193.50980392156862,62.490196078431374,255.50980392156862,-146.74,71.09,241.06
2182.85,-179.0,-253.01960784313727,-160.49019607843138,-45.49,116.24,-297.86
2182.9,-211.0,106.98039215686275,129.01960784313727,-55.43,177.42,-230.87
2182.95,-204.49019607843138,-296.03921568627453,221.01960784313727,-86.09,111.83,-102.24
2183.0,54.03921568627451,-235.07843137254903,-21.49019607843137,210.25,-22.07,-72.81
2183.05,165.0392156862745,20.41176470588235,-267.4901960784314,-265.04,23.56,-199.96
2183.1,-168.9607843137255,-66.56862745098039,-144.49019607843138,-70.61,50.34,13.45
2183.15,-286.47058823529414,19.0,73.0,101.29,-211.52,-166.02
2183.2,311.01960784313724,242.54901960784315,34.98039215686274,106.19,-198.99,-255.76
2183.25,47.529411764705884,-148.98039215686273,3.980392156862745,92.05,-156.26,-312.7
2183.3,-101.98039215686275,-94.0,-258.01960784313724,-3.07,-180.34,322.29
2183.35,-299.4901960784314,297.0,15.490196078431373,-19.24,-173.16,-279.17
2183.4,247.01960784313727,-2.5098039215686274,-187.0,50.93,-203.72,-246.94
2183.45,279.01960784313724,-18.50980392156863,-280.0,-44.16,-200.04,-175.64
2183.5,136.01960784313727,46.490196078431374,-6.490196078431373,57.4,-190.0,-89.4
2183.55,295.01960784313724,62.490196078431374,21.019607843137255,9.0,-85.56,7.29
2183.6,-22.980392156862745,-116.50980392156863,109.52941176470588,12.01,-96.62,68.05
2183.65,-315.4901960784314,-296.5098039215686,-224.98039215686273,111.09,-107.43,138.68
2183.7,-32.470588235294116,264.0,-147.98039215686273,139.69,-57.7,172.49
2183.75,197.0392156862745,-274.0,21.019607843137255,94.26,-45.76,153.52
2183.8,-175.47058823529412,172.50980392156862,55.509803921568626,-24.66,-45.48,116.56
2183.85,222.52941176470588,-105.49019607843137,239.50980392156862,10.78,-48.56,61.09
2183.9,-54.98039215686274,303.5098039215686,-295.0,-10.24,-41.46,19.09
2183.95,247.01960784313727,254.50980392156862,-203.0,-6.18,-34.81,-0.82
2184.0,-93.49019607843137,-176.0,-141.0,-14.48,-18.11,-9.32
2184.05,65.50980392156863,-127.0,-156.0,-16.23,-5.41,-15.8
2184.1,224.50980392156862,-45.0,-156.0,-2.47,7.01,-20.8
2184.15,256.5098039215686,68.0,-187.0,25.31,19.68,-11.35
2184.2,320.5098039215686,117.0,-295.0,0.14,30.0,-28.89
2184.25,208.50980392156862,117.0,-279.0,-67.82,39.31,-73.72
2184.3,-315.4901960784314,133.0,-280.0,-100.37,43.2,-46.53
2184.35,231.01960784313727,199.0,178.50980392156862,-26.03,23.42,1.17
2184.4,-315.4901960784314,133.0,101.50980392156863,17.61,12.75,23.67
2184.45,279.01960784313724,232.0,9.509803921568627,37.84,3.61,31.93
2184.5,-252.49019607843138,150.0,70.50980392156863,40.5,-7.89,32.39
2184.55,-108.49019607843137,101.0,101.50980392156863,57.16,-18.15,26.61
2184.6,-61.490196078431374,150.0,147.50980392156862,75.5,-23.89,23.67
2184.65,-61.490196078431374,150.0,147.50980392156862,66.15,-10.97,26.47
2184.7,-267.4901960784314,133.0,147.50980392156862,60.27,5.89,39.11
2184.75,-236.49019607843138,150.0,224.50980392156862,32.24,36.3,40.44
2184.8,311.01960784313724,84.0,316.5098039215686,-33.83,69.69,32.42
2184.85,120.01960784313725,52.0,-264.0,-105.97,78.09,24.34
2184.9,25.019607843137255,52.0,-233.0,-101.98,55.03,21.82
2184.95,184.01960784313727,68.0,-249.0,-34.85,35.01,8.94
2185.0,-236.49019607843138,150.0,239.50980392156862,39.66,29.65,-3.23
2185.05,-13.490196078431373,150.0,132.50980392156862,4.66,47.22,-13.17
2185.1,81.50980392156863,52.0,101.50980392156863,-80.21,64.09,-13.77
2185.15,129.50980392156862,84.0,147.50980392156862,-48.43,69.9,-8.83
2185.2,193.50980392156862,248.0,116.50980392156863,21.67,70.5,-9.67
2185.25,97.50980392156863,-263.5098039215686,101.50980392156863,65.1,58.35,-4.46
2185.3,2.5098039215686274,-214.50980392156862,39.509803921568626,68.11,53.52,16.81
2185.35,-172.49019607843138,313.0,101.50980392156863,79.77,44.28,21.85
2185.4,-204.49019607843138,150.0,101.50980392156863,10.15,39.24,32.95
2185.45,-315.4901960784314,84.0,255.50980392156862,-61.17,39.17,61.02
2185.5,-315.4901960784314,35.0,-203.0,-98.23,30.74,75.79
2185.55,-267.4901960784314,166.0,-79.0,-112.83,11.52,63.57
2185.6,-93.49019607843137,264.0,-33.0,-176.0,-59.62,-88.42
2185.65,231.01960784313727,166.0,27.0,-221.08,-159.27,-282.36
2185.7,-245.98039215686273,79.49019607843137,70.50980392156863,29.12,-189.86,320.99
2185.75,158.52941176470588,73.98039215686275,-86.98039215686275,114.21,-167.7,-265.24
2185.8,-32.470588235294116,275.4901960784314,186.52941176470588,52.29,-111.74,-215.47
2185.85,-54.98039215686274,-100.50980392156863,36.01960784313726,147.35,-44.57,-169.41
2185.9,231.01960784313727,-67.50980392156863,-117.98039215686275,149.42,20.9,-115.16
2185.95,152.01960784313727,-84.50980392156863,221.01960784313727,132.93,63.6,-48.17
2186.0,-299.4901960784314,313.0,-236.49019607843138,103.04,91.22,-5.16
2186.05,-124.49019607843137,264.0,39.509803921568626,0.0,112.88,42.15
2186.1,-188.49019607843138,101.0,270.5098039215686,-27.64,110.96,114.18
2186.15,-188.49019607843138,183.0,286.5098039215686,-26.83,108.79,168.47
2186.2,200.01960784313727,183.0,-310.0,-6.67,97.31,207.98
2186.25,57.01960784313726,150.0,301.5098039215686,-18.96,93.42,232.97
2186.3,-101.98039215686275,84.0,316.5098039215686,-8.56,75.96,220.27
2186.35,-165.98039215686273,35.0,255.50980392156862,-35.23,42.22,172.32
2186.4,88.01960784313725,-111.0,-249.0,-45.45,11.14,116.84
2186.45,-236.49019607843138,-176.0,-249.0,-19.97,-23.64,44.67
2186.5,-13.490196078431373,-111.0,-187.0,-11.71,-43.49,-22.45
2186.55,-267.4901960784314,-62.0,-264.0,-4.15,-65.92,-102.6
2186.6,-315.4901960784314,-29.0,286.5098039215686,6.79,-80.48,-179.35
2186.65,57.01960784313726,150.0,286.5098039215686,-5.34,-91.58,-213.76
2186.7,-101.98039215686275,84.0,132.50980392156862,-21.83,-90.67,-226.92
2186.75,-260.98039215686276,68.0,132.50980392156862,-37.58,-93.82,-222.12
2186.8,301.52941176470586,232.0,239.50980392156862,-68.48,-89.48,-172.11
2186.85,-292.98039215686276,-198.50980392156862,-126.0,-62.85,-88.04,-112.78
2186.9,-6.980392156862745,62.490196078431374,-187.0,-94.03,-55.14,-63.57
2186.95,-188.49019607843138,275.4901960784314,193.50980392156862,-106.91,-11.74,-13.87
2187.0,320.5098039215686,95.49019607843137,286.5098039215686,-176.56,15.65,52.41
2187.05,-84.0,-2.5098039215686274,224.50980392156862,-136.24,27.27,160.42
2187.1,-116.0,160.49019607843138,-67.49019607843137,-73.87,67.52,306.61
2187.15,-29.49019607843137,-89.01960784313725,190.01960784313727,-103.41,140.32,-231.36
2187.2,-156.49019607843138,8.980392156862745,-136.47058823529412,-1.7,192.96,-180.33
2187.25,158.52941176470588,242.9607843137255,-201.9607843137255,68.5,258.17,-171.02
2187.3,-209.45098039215685,80.43137254901961,198.0392156862745,147.32,215.85,-203.08
2187.35,-75.94117647058823,64.43137254901961,-163.98039215686273,-263.29,120.3,188.0
2187.4,76.54901960784314,101.47058823529412,-267.4901960784314,306.81,-136.8,-41.84
2187.45,208.50980392156862,-317.96078431372547,30.49019607843137,88.2,-203.12,-179.84
2187.5,-159.47058823529412,237.0392156862745,-23.529411764705884,3.71,-112.02,-252.71
2187.55,222.52941176470588,188.50980392156862,-146.52941176470588,-125.71,-149.85,-241.9
2187.6,88.01960784313725,264.0,33.98039215686274,-4.12,-181.46,-236.61
2187.65,-77.49019607843137,281.0,12.0,61.5,-218.38,-232.8
2187.7,-252.49019607843138,111.49019607843137,-233.0,7.53,-228.32,-176.87
2187.75,-252.49019607843138,-18.50980392156863,-36.490196078431374,70.84,-170.26,-63.75
2187.8,-315.4901960784314,-236.01960784313727,309.52941176470586,-22.6,-60.99,66.83
2187.85,-315.4901960784314,111.49019607843137,-28.470588235294116,35.04,-54.06,65.53
2187.9,-188.49019607843138,-280.5098039215686,52.01960784313726,72.17,-58.78,69.87
2187.95,-143.47058823529412,-45.0,21.019607843137255,123.55,-64.45,71.2
2188.0,-159.47058823529412,-176.0,298.01960784313724,105.56,-76.25,48.87
2188.05,-48.470588235294116,58.509803921568626,132.50980392156862,47.36,-101.31,8.13
2188.1,222.52941176470588,156.50980392156862,-110.0,-38.73,-114.4,-27.91
2188.15,-276.98039215686276,237.50980392156862,-172.0,-25.26,-113.07,-62.35
2188.2,-165.98039215686273,-160.0,-80.0,-23.23,-97.28,-66.79
2188.25,136.01960784313727,-62.0,-233.0,-44.05,-72.54,-45.58
2188.3,-252.49019607843138,-29.0,-187.0,-58.02,-39.71,-30.95
2188.35,-77.49019607843137,52.0,-249.0,-36.04,-17.69,-5.44
2188.4,145.50980392156862,68.0,316.5098039215686,13.16,0.64,22.97
2188.45,-290.0,183.0,239.50980392156862,33.11,33.61,45.83
2188.5,-179.0,150.0,178.50980392156862,7.32,66.05,41.21
2188.55,-275.0,84.0,239.50980392156862,-46.89,102.17,-14.43
2188.6,-156.49019607843138,117.0,239.50980392156862,-95.75,120.76,25.81
2188.65,-38.98039215686274,313.0,178.50980392156862,-28.83,83.45,101.34
2188.7,136.01960784313727,52.0,116.50980392156863,40.15,70.15,135.85
2188.75,88.01960784313725,133.0,24.50980392156863,98.25,58.49,113.17
2188.8,231.01960784313727,183.0,163.50980392156862,73.43,39.14,80.9
2188.85,-140.49019607843138,101.0,239.50980392156862,67.34,22.3,55.94
2188.9,49.509803921568626,52.0,224.50980392156862,86.24,10.23,33.4
2188.95,81.50980392156863,183.0,209.50980392156862,92.16,1.3,24.16
2189.0,97.50980392156863,133.0,193.50980392156862,106.02,-0.44,23.6
2189.05,97.50980392156863,166.0,147.50980392156862,126.35,8.62,25.63
2189.1,-13.490196078431373,166.0,116.50980392156863,131.99,27.94,27.28
2189.15,-93.49019607843137,133.0,70.50980392156863,106.93,49.29,36.38
2189.2,-124.49019607843137,117.0,39.509803921568626,96.32,70.32,43.55
2189.25,-172.49019607843138,35.0,86.50980392156863,87.4,88.49,43.38
2189.3,-267.4901960784314,-29.0,-52.490196078431374,65.07,108.3,49.54
2189.35,311.01960784313724,19.0,-160.49019607843138,70.46,112.92,48.49
2189.4,311.01960784313724,-78.0,-67.49019607843137,49.32,122.68,52.72
2189.45,-315.4901960784314,-209.0,-144.49019607843138,41.3,118.31,47.09
2189.5,263.01960784313724,-111.0,-52.490196078431374,-14.06,105.81,44.92
2189.55,247.01960784313727,-160.0,239.50980392156862,-7.3,86.7,44.43
2189.6,-299.4901960784314,-78.0,286.5098039215686,-78.49,58.18,35.26
2189.65,-283.4901960784314,270.5098039215686,-279.0,-253.46,-50.28,39.7
2189.7,-204.49019607843138,90.50980392156863,-187.0,-148.46,-210.82,-84.99
2189.75,113.50980392156863,84.0,129.01960784313727,-10.52,-229.2,-199.06
2189.8,-156.49019607843138,264.0,-252.49019607843138,-157.14,-173.93,-189.99
2189.85,216.01960784313727,35.0,282.01960784313724,-120.6,-143.13,-195.0
2189.9,25.019607843137255,242.49019607843138,282.01960784313724,-124.34,-112.19,-195.45
2189.95,-133.98039215686273,209.49019607843138,-236.49019607843138,-122.28,-102.01,-181.73
2190.0,-54.98039215686274,193.49019607843138,-206.49019607843138,-105.48,-72.26,-149.6
2190.05,72.01960784313725,111.49019607843137,-52.490196078431374,-114.19,-39.74,-120.9
2190.1,295.01960784313724,-67.50980392156863,24.50980392156863,-130.89,-9.12,-100.74
2190.15,-220.49019607843138,-149.50980392156862,70.50980392156863,-138.1,16.21,-76.66
2190.2,-156.49019607843138,-182.50980392156862,132.50980392156862,-116.85,25.45,-28.33
2190.25,-93.49019607843137,-198.50980392156862,147.50980392156862,-63.2,11.77,19.44
2190.3,-236.49019607843138,-231.50980392156862,101.50980392156863,-76.71,3.72,47.89
2190.35,200.01960784313727,68.0,163.50980392156862,3.12,-48.35,51.64
2190.4,-124.49019607843137,-62.0,86.50980392156863,99.51,-52.45,32.21
2190.45,184.01960784313727,-143.0,-298.4901960784314,107.84,-25.46,22.38
2190.5,247.01960784313727,319.5098039215686,-21.49019607843137,-11.05,-4.92,-18.91
2190.55,-236.49019607843138,90.50980392156863,193.50980392156862,-32.4,-1.28,-52.3
2190.6,-299.4901960784314,-307.0,147.50980392156862,24.08,-15.84,-63.68
2190.65,247.01960784313727,-160.0,147.50980392156862,57.54,-37.33,-65.53
2190.7,216.01960784313727,-209.0,301.5098039215686,12.64,-53.99,-65.32
2190.75,120.01960784313725,-258.0,-203.0,39.87,-75.41,-38.37
2190.8,295.01960784313724,-78.0,-187.0,25.62,-76.74,-8.76
2190.85,-267.4901960784314,117.0,-264.0,7.81,-57.7,15.48
2190.9,177.50980392156862,264.0,-295.0,-72.54,-5.13,51.71
2190.95,256.5098039215686,297.0,286.5098039215686,-116.43,32.8,106.17
2191.0,193.50980392156862,-67.50980392156863,116.50980392156863,-99.25,64.2,215.23
2191.05,256.5098039215686,62.490196078431374,-267.4901960784314,-16.51,111.2,287.26
2191.1,81.50980392156863,-155.01960784313727,-132.98039215686273,4.73,207.66,-289.04
2191.15,94.52941176470588,-247.0392156862745,-59.470588235294116,13.13,261.49,-143.75
2191.2,168.5686274509804,134.94117647058823,-105.47058823529412,145.32,159.92,-135.6
2191.25,48.07843137254902,166.94117647058823,-147.98039215686273,-211.35,37.7,258.28
2191.3,99.05882352941177,138.98039215686273,-313.4901960784314,326.13,-165.04,40.19
2191.35,-149.98039215686273,-78.47058823529412,-61.509803921568626,-12.13,-229.72,-121.18
2191.4,25.019607843137255,74.03921568627452,-50.03921568627451,-79.3,-97.67,-276.69
2191.45,-124.49019607843137,227.01960784313727,99.47058823529412,-261.44,-83.0,-308.22
2191.5,263.01960784313724,-214.50980392156862,-89.01960784313725,-113.25,-122.52,-293.7
2191.55,-283.4901960784314,13.490196078431373,135.0,26.36,-149.64,-261.57
2191.6,231.01960784313727,-73.01960784313725,162.50980392156862,33.25,-163.36,-209.28
2191.65,-299.4901960784314,62.490196078431374,86.50980392156863,47.71,-116.95,-89.82
2191.7,-188.49019607843138,-236.01960784313727,-163.98039215686273,51.38,-33.69,48.59
2191.75,279.01960784313724,128.49019607843138,-193.98039215686273,17.19,-21.72,95.81
2191.8,200.01960784313727,199.0,-298.4901960784314,111.16,-58.12,121.25
2191.85,-223.47058823529412,68.0,-283.4901960784314,182.67,-60.74,122.23
2191.9,-175.47058823529412,-241.0,-160.49019607843138,132.2,-64.03,76.28
2191.95,-0.47058823529411764,90.50980392156863,-172.0,45.64,-78.1,29.52
2192.0,285.52941176470586,123.50980392156863,-79.0,8.54,-75.79,-11.35
2192.05,-133.98039215686273,221.50980392156862,-64.0,-8.21,-68.16,-35.26
2192.1,72.01960784313725,-241.0,-95.0,-44.61,-51.96,-42.43
2192.15,263.01960784313724,-160.0,-126.0,-65.37,-25.67,-41.77
2192.2,-172.49019607843138,-78.0,-172.0,-68.97,-2.26,-33.23
2192.25,-29.49019607843137,-45.0,-110.0,-58.96,5.05,-17.13
2192.3,81.50980392156863,84.0,-264.0,-18.82,7.71,0.64
2192.35,224.50980392156862,150.0,-279.0,-7.76,28.08,28.01
2192.4,-306.0,84.0,239.50980392156862,15.58,41.73,30.22
2192.45,288.5098039215686,133.0,255.50980392156862,-17.91,49.78,3.65
2192.5,-172.49019607843138,166.0,147.50980392156862,-32.01,47.4,39.46
2192.55,152.01960784313727,215.0,163.50980392156862,-1.42,24.96,87.3
2192.6,295.01960784313724,101.0,70.50980392156863,42.39,16.6,111.17
2192.65,-315.4901960784314,183.0,101.50980392156863,62.16,12.54,115.06
2192.7,-252.49019607843138,133.0,255.50980392156862,22.44,10.3,92.8
2192.75,-252.49019607843138,68.0,301.5098039215686,-9.12,2.35,73.23
2192.8,-315.4901960784314,133.0,-203.0,-11.29,-1.84,70.08
2192.85,-283.4901960784314,199.0,-218.0,-35.58,0.81,63.61
2192.9,311.01960784313724,215.0,-156.0,-50.63,0.74,52.55
2192.95,279.01960784313724,-296.5098039215686,-172.0,-92.67,-1.28,48.35
2193.0,311.01960784313724,-214.50980392156862,-126.0,-96.1,-1.63,38.72
2193.05,295.01960784313724,-182.50980392156862,-172.0,-79.82,3.79,26.26
2193.1,-236.49019607843138,-51.509803921568626,-203.0,-79.79,7.88,15.83
2193.15,-108.49019607843137,-149.50980392156862,-249.0,-37.47,11.73,7.57
2193.2,-45.490196078431374,-84.50980392156863,-249.0,-30.02,21.64,-16.85
2193.25,18.50980392156863,-214.50980392156862,-279.0,9.38,27.73,-38.13
2193.3,-29.49019607843137,-214.50980392156862,-203.0,33.39,37.84,-56.36
2193.35,-61.490196078431374,-198.50980392156862,-218.0,52.71,36.97,-61.47
2193.4,-61.490196078431374,-247.50980392156862,-187.0,79.84,37.98,-72.64
2193.45,-124.49019607843137,-214.50980392156862,-249.0,92.26,35.15,-70.36
2193.5,-172.49019607843138,-280.5098039215686,-264.0,81.69,36.76,-58.57
2193.55,-220.49019607843138,-312.5098039215686,-264.0,91.07,43.86,-44.81
2193.6,-299.4901960784314,-263.5098039215686,255.50980392156862,88.17,51.74,-30.78
2193.65,-267.4901960784314,297.0,224.50980392156862,101.05,60.91,-16.53
2193.7,-252.49019607843138,281.0,239.50980392156862,85.02,68.01,-9.43
2193.75,-252.49019607843138,166.0,-203.0,37.42,52.26,4.07
2193.8,-252.49019607843138,52.0,104.0,-37.61,49.78,11.88
2193.85,-204.49019607843138,-111.0,273.0,-145.69,30.42,-14.54
2193.9,-315.4901960784314,-29.0,227.0,-250.24,-53.67,-69.0
2193.95,-70.98039215686275,-312.5098039215686,239.50980392156862,-85.74,-145.06,-129.37
2194.0,-181.98039215686273,-187.01960784313727,-286.98039215686276,77.46,-114.99,-111.24
2194.05,-245.98039215686273,-269.01960784313724,1.5294117647058822,-6.15,-73.31,-57.9
2194.1,25.019607843137255,-149.50980392156862,21.019607843137255,20.48,-49.02,-11.39
2194.15,18.50980392156863,-133.50980392156862,144.01960784313727,62.62,-20.56,1.06
2194.2,224.50980392156862,-165.50980392156862,252.01960784313727,88.41,-18.46,-1.34
2194.25,272.5098039215686,-182.50980392156862,24.50980392156863,108.29,-13.67,8.9
2194.3,81.50980392156863,-133.50980392156862,39.509803921568626,143.08,1.65,42.61
2194.35,-156.49019607843138,-116.50980392156863,24.50980392156863,147.14,26.26,94.02
2194.4,-299.4901960784314,-165.50980392156862,86.50980392156863,133.18,49.57,132.77
2194.45,104.01960784313725,-312.5098039215686,209.50980392156862,43.68,96.92,158.67
2194.5,79.52941176470588,215.0,224.50980392156862,16.35,103.19,177.22
2194.55,-54.98039215686274,133.0,-295.0,-3.14,100.35,162.97
2194.6,57.01960784313726,166.0,-218.0,-39.71,77.43,119.43
2194.65,-252.49019607843138,150.0,-141.0,-35.02,34.27,68.47
2194.7,18.50980392156863,133.0,-126.0,-18.82,5.64,16.74
2194.75,161.50980392156862,199.0,-249.0,6.51,-13.04,-26.89
2194.8,145.50980392156862,281.0,-264.0,16.49,-30.29,-54.72
2194.85,97.50980392156863,-263.5098039215686,316.5098039215686,12.39,-49.3,-79.18
2194.9,65.50980392156863,-247.50980392156862,255.50980392156862,-21.41,-60.08,-93.32
2194.95,-45.490196078431374,-182.50980392156862,178.50980392156862,-17.31,-69.56,-104.77
2195.0,-93.49019607843137,-116.50980392156863,116.50980392156863,3.54,-75.2,-106.03
2195.05,-172.49019607843138,-84.50980392156863,39.509803921568626,20.34,-70.47,-87.76
2195.1,-267.4901960784314,-84.50980392156863,-21.49019607843137,-22.21,-38.48,-31.37
2195.15,263.01960784313724,-100.50980392156863,-6.490196078431373,-54.34,-17.17,41.21
2195.2,279.01960784313724,-18.50980392156863,9.509803921568627,-95.54,6.52,89.23
2195.25,-299.4901960784314,-18.50980392156863,24.50980392156863,-102.99,7.99,132.66
2195.3,-220.49019607843138,79.49019607843137,147.50980392156862,-123.99,1.44,164.23
2195.35,-283.4901960784314,144.49019607843138,224.50980392156862,-105.79,-9.85,173.05
2195.4,-156.49019607843138,193.49019607843138,-310.0,-32.29,-9.89,156.32
2195.45,-156.49019607843138,177.49019607843138,-295.0,-15.35,-2.26,126.5
2195.5,-77.49019607843137,13.490196078431373,-218.0,-9.02,-6.11,102.11
2195.55,49.509803921568626,-51.509803921568626,-218.0,-39.92,-13.53,74.46
2195.6,161.50980392156862,-67.50980392156863,-49.0,-31.03,-21.75,45.62
2195.65,256.5098039215686,30.49019607843137,43.0,-67.36,-24.66,30.85
2195.7,-275.0,62.490196078431374,12.0,-46.75,-25.81,28.82
2195.75,-227.0,226.49019607843138,43.0,-23.89,-21.23,34.07
2195.8,-195.0,291.4901960784314,-18.0,-13.92,-10.83,37.25
2195.85,-195.0,242.49019607843138,27.0,28.04,-8.14,31.58
2195.9,-179.0,291.4901960784314,135.0,88.24,-15.77,24.09
2195.95,-147.0,258.4901960784314,58.0,-269.52,-13.25,31.23
2196.0,-84.0,187.98039215686273,-187.0,-163.82,-17.38,35.71
2196.05,-20.0,-286.01960784313724,239.50980392156862,-177.26,-34.11,50.06
2196.1,-36.0,-318.01960784313724,270.5098039215686,278.43,-34.53,63.15
2196.15,42.0,-312.5098039215686,147.50980392156862,214.97,-50.73,64.41
2196.2,11.0,-84.50980392156863,-52.490196078431374,71.33,-33.86,60.07
2196.25,-68.0,205.50980392156862,-221.49019607843138,68.36,-31.45,39.81
2196.3,-116.0,-111.0,-298.4901960784314,20.97,-18.43,26.72
2196.35,-195.0,-274.0,252.01960784313727,32.48,-11.46,10.37
2196.4,288.5098039215686,-225.0,313.01960784313724,-6.88,-6.21,-2.01
2196.45,-290.0,188.50980392156862,313.01960784313724,29.4,-20.46,-22.06
2196.5,-275.0,-192.0,267.01960784313724,13.86,-8.17,-25.53
2196.55,-179.0,-225.0,282.01960784313724,-2.72,-10.45,-2.32
2196.6,-84.0,-143.0,-298.4901960784314,3.96,0.57,4.7
2196.65,-211.0,-241.0,282.01960784313724,14.39,-11.15,-14.64
2196.7,-84.0,-176.0,-298.4901960784314,-13.85,-19.13,4.88
2196.75,-116.0,123.50980392156863,-298.4901960784314,4.59,-83.91,-21.36
2196.8,-100.0,-209.0,-298.4901960784314,-21.65,-80.62,-13.14
2196.85,-179.0,-225.0,313.01960784313724,-31.17,-29.38,17.72
2196.9,145.50980392156862,-192.0,-267.4901960784314,-9.61,-3.62,9.22
2196.95,288.5098039215686,-176.0,-252.49019607843138,-4.22,-10.38,10.55
2197.0,288.5098039215686,-192.0,-252.49019607843138,13.55,19.68,20.59
2197.05,208.50980392156862,-209.0,-298.4901960784314,24.71,36.37,-2.53
2197.1,65.50980392156863,-192.0,282.01960784313724,20.76,72.25,23.78
2197.15,256.5098039215686,-241.0,313.01960784313724,1.19,54.5,20.35
2197.2,320.5098039215686,303.5098039215686,-252.49019607843138,14.32,30.98,4.14
2197.25,-227.0,-274.0,282.01960784313724,13.16,0.46,11.42
2197.3,-116.0,319.5098039215686,-283.4901960784314,3.89,4.94,7.78
2197.35,-275.0,-274.0,313.01960784313724,5.11,3.86,7.82
2197.4,-211.0,-290.0,298.01960784313724,-1.49,6.31,6.59
2197.45,-243.0,-290.0,-283.4901960784314,-5.31,14.08,9.67
2197.5,-227.0,-274.0,-298.4901960784314,-4.75,6.62,8.1
2197.55,-227.0,-307.0,-313.4901960784314,1.09,-0.82,6.17
2197.6,-243.0,-241.0,-313.4901960784314,-8.95,2.0,5.61
2197.65,-211.0,-274.0,-313.4901960784314,-4.15,0.22,3.83
2197.7,-195.0,-258.0,-313.4901960784314,-6.88,-1.0,2.22
2197.75,-195.0,-241.0,-313.4901960784314,-12.83,-0.19,3.79
2197.8,-211.0,-241.0,313.01960784313724,-5.38,-1.77,7.36
2197.85,-227.0,-241.0,267.01960784313724,-2.82,-2.61,7.12
2197.9,-195.0,-258.0,267.01960784313724,-3.98,0.18,9.04
2197.95,-227.0,-241.0,267.01960784313724,-10.56,6.1,16.85
2198.0,-211.0,-307.0,298.01960784313724,-5.24,9.21,13.91
2198.05,-306.0,-127.0,298.01960784313724,-1.14,-0.3,16.18
2198.1,-179.0,-225.0,313.01960784313724,4.8,-1.66,6.24
2198.15,-243.0,-209.0,298.01960784313724,8.16,-7.54,-5.65
2198.2,-179.0,-192.0,-298.4901960784314,-8.42,8.62,2.88
2198.25,208.50980392156862,-192.0,-267.4901960784314,7.39,-3.34,-2.81
2198.3,-147.0,-143.0,-298.4901960784314,10.26,-5.93,-13.66
2198.35,-211.0,-258.0,313.01960784313724,14.49,-31.59,-38.79
2198.4,-211.0,-290.0,-283.4901960784314,1.96,-22.91,-8.13
2198.45,304.5098039215686,-209.0,313.01960784313724,-7.37,14.81,52.83
2198.5,-306.0,-258.0,-298.4901960784314,-14.2,23.56,45.16
2198.55,-306.0,-225.0,236.01960784313727,-1.91,1.3,-15.03
2198.6,-275.0,-176.0,298.01960784313724,-8.32,6.2,8.8
2198.65,-243.0,-209.0,298.01960784313724,-2.82,-4.88,7.19
2198.7,-163.0,-258.0,298.01960784313724,-12.34,5.54,-13.38
2198.75,-243.0,-209.0,313.01960784313724,-4.01,-4.29,0.12
2198.8,-275.0,-192.0,282.01960784313724,-3.56,-3.87,1.8
2198.85,-275.0,-192.0,298.01960784313724,-22.91,-0.82,-5.58
2198.9,-195.0,-225.0,-298.4901960784314,-41.25,-0.47,-14.78
2198.95,-259.0,-241.0,-267.4901960784314,-95.78,2.56,-29.27
2199.0,-275.0,-209.0,-267.4901960784314,-166.97,10.47,-47.16
2199.05,320.5098039215686,-143.0,-190.49019607843138,-315.79,24.47,-59.69
2199.1,-306.0,-29.0,-129.49019607843138,193.79,42.01,-31.97
2199.15,320.5098039215686,215.0,-36.490196078431374,255.01,41.17,-23.85
2199.2,-179.0,226.49019607843138,193.50980392156862,-313.52,35.11,-5.05
2199.25,-147.0,-187.01960784313727,224.50980392156862,-230.67,14.6,-0.82
2199.3,-84.0,-187.01960784313727,-187.0,-153.39,4.7,1.97
2199.35,-84.0,-220.01960784313727,-18.0,-89.2,1.37,3.34
2199.4,-131.0,-204.01960784313727,12.0,-56.65,0.01,2.39
2199.45,-179.0,-318.01960784313724,104.0,-30.33,0.08,0.36
2199.5,-227.0,275.4901960784314,181.0,-12.03,3.44,1.83
2199.55,-243.0,307.4901960784314,212.0,-0.48,10.12,3.79
2199.6,-243.0,291.4901960784314,273.0,6.23,14.29,2.6
2199.65,-275.0,291.4901960784314,289.0,0.6,19.19,2.53
2199.7,-290.0,258.4901960784314,212.0,3.5,22.65,3.58
2199.75,-259.0,209.49019607843138,243.0,-1.28,29.27,5.58
2199.8,-227.0,144.49019607843138,181.0,-28.44,41.34,8.03
2199.85,-243.0,193.49019607843138,166.0,-45.73,42.32,8.73
2199.9,-275.0,177.49019607843138,212.0,-45.56,40.43,13.35
2199.95,-306.0,291.4901960784314,227.0,-33.2,45.33,14.29
2200.0,-306.0,177.49019607843138,120.0,9.14,67.28,11.04
2200.05,-290.0,226.49019607843138,73.0,-5.31,82.19,-3.13
2200.1,304.5098039215686,79.49019607843137,166.0,-3.42,78.79,-15.24
2200.15,288.5098039215686,160.49019607843138,196.0,-16.4,79.04,-15.59
2200.2,256.5098039215686,258.4901960784314,196.0,40.53,76.59,-18.46
2200.25,256.5098039215686,242.49019607843138,58.0,21.74,71.86,-27.35
2200.3,193.50980392156862,209.49019607843138,135.0,29.58,59.79,-42.75
2200.35,240.50980392156862,-236.01960784313727,58.0,50.93,47.92,-43.69
2200.4,145.50980392156862,-269.01960784313724,196.0,64.09,44.18,-39.39
2200.45,49.509803921568626,-204.01960784313727,135.0,78.19,38.51,-24.65
2200.5,97.50980392156863,-253.01960784313727,104.0,84.56,30.32,-7.68
2200.55,208.50980392156862,291.4901960784314,58.0,67.8,30.77,4.21
2200.6,240.50980392156862,258.4901960784314,89.0,21.21,37.35,17.16
2200.65,193.50980392156862,209.49019607843138,27.0,-5.59,42.39,29.76
2200.7,224.50980392156862,193.49019607843138,-3.0,-38.56,39.52,30.81
2200.75,240.50980392156862,95.49019607843137,-110.0,-29.35,36.55,26.3
2200.8,240.50980392156862,193.49019607843138,-110.0,-37.54,31.61,15.62
2200.85,272.5098039215686,128.49019607843138,-218.0,-20.29,26.22,-1.73
2200.9,224.50980392156862,111.49019607843137,-233.0,-21.93,29.9,-14.82
2200.95,177.50980392156862,95.49019607843137,-295.0,-1.77,30.46,-30.6
2201.0,145.50980392156862,79.49019607843137,-310.0,2.7,37.18,-51.85
2201.05,97.50980392156863,111.49019607843137,-233.0,22.44,46.1,-77.99
2201.1,81.50980392156863,128.49019607843138,-264.0,24.26,59.93,-120.59
2201.15,-93.49019607843137,160.49019607843138,-187.0,49.53,70.08,-147.22
2201.2,-172.49019607843138,111.49019607843137,-203.0,48.23,60.31,-145.23
2201.25,-29.49019607843137,-116.50980392156863,301.5098039215686,37.0,39.63,-146.14
2201.3,-77.49019607843137,-263.5098039215686,-280.0,48.27,20.38,-165.21
2201.35,-267.4901960784314,-214.50980392156862,209.50980392156862,33.53,-6.53,-154.08
2201.4,-267.4901960784314,297.0,193.50980392156862,40.57,-26.9,-130.04
2201.45,-252.49019607843138,281.0,70.50980392156863,37.98,-34.7,-99.94
2201.5,-267.4901960784314,133.0,101.50980392156863,9.49,-36.0,-55.87
2201.55,-299.4901960784314,166.0,147.50980392156862,-12.45,-28.47,-19.19
2201.6,-220.49019607843138,68.0,55.509803921568626,22.72,-25.32,4.25
2201.65,-93.49019607843137,166.0,-37.490196078431374,34.93,-10.31,16.29
2201.7,-77.49019607843137,84.0,-67.49019607843137,8.26,2.74,21.75
2201.75,-188.49019607843138,35.0,39.509803921568626,-35.86,0.46,13.7
2201.8,-315.4901960784314,19.0,-6.490196078431373,-14.48,22.69,22.62
2201.85,72.01960784313725,166.0,-160.49019607843138,48.16,27.8,62.0
2201.9,247.01960784313727,150.0,-6.490196078431373,68.22,40.71,82.37
2201.95,184.01960784313727,68.0,-6.490196078431373,64.58,61.64,86.67
2202.0,184.01960784313727,101.0,163.50980392156862,4.66,69.41,74.49
2202.05,263.01960784313724,35.0,301.5098039215686,-15.95,56.18,63.64
2202.1,-267.4901960784314,52.0,-279.0,0.49,37.7,44.01
2202.15,-140.49019607843138,166.0,301.5098039215686,27.55,20.41,22.94
2202.2,-108.49019607843137,166.0,-310.0,25.52,4.07,5.75
2202.25,-108.49019607843137,150.0,-279.0,20.27,-14.33,-16.6
2202.3,-93.49019607843137,150.0,-310.0,28.63,-16.78,-28.29
2202.35,-252.49019607843138,133.0,224.50980392156862,37.94,-16.36,-34.49
2202.4,295.01960784313724,150.0,193.50980392156862,-15.35,-21.4,-62.35
2202.45,-6.980392156862745,19.0,147.50980392156862,-103.87,-7.05,-18.42
2202.5,88.01960784313725,-29.0,101.50980392156863,-6.04,-15.07,17.2
2202.55,-61.490196078431374,35.0,-36.490196078431374,-5.34,7.39,6.49
2202.6,-220.49019607843138,68.0,-67.49019607843137,-65.79,4.98,-15.76
2202.65,-61.490196078431374,-62.0,147.50980392156862,-96.27,-6.7,-39.46
2202.7,18.50980392156863,-13.0,147.50980392156862,-51.23,-17.73,-57.34
2202.75,2.5098039215686274,133.0,9.509803921568627,19.25,-30.75,-52.83
2202.8,-108.49019607843137,166.0,-83.49019607843137,38.05,-37.61,-36.62
2202.85,-124.49019607843137,117.0,-52.490196078431374,31.43,-27.81,-22.31
2202.9,-140.49019607843138,35.0,-83.49019607843137,16.56,-21.96,-21.43
2202.95,-108.49019607843137,52.0,9.509803921568627,-10.77,-11.39,-22.62
2203.0,-267.4901960784314,84.0,-21.49019607843137,-3.52,-12.76,-4.84
2203.05,-220.49019607843138,117.0,-6.490196078431373,39.17,-22.91,-4.04
2203.1,-204.49019607843138,166.0,-67.49019607843137,56.56,9.77,8.59
2203.15,152.01960784313727,281.0,-190.49019607843138,75.53,16.53,30.81
2203.2,295.01960784313724,199.0,147.50980392156862,47.67,48.24,45.76
2203.25,88.01960784313725,150.0,70.50980392156863,17.01,69.59,75.79
2203.3,200.01960784313727,117.0,209.50980392156862,-22.0,70.04,93.99
2203.35,311.01960784313724,68.0,301.5098039215686,-15.7,60.8,97.17
2203.4,-299.4901960784314,150.0,286.5098039215686,-9.51,47.57,86.85
2203.45,-252.49019607843138,166.0,301.5098039215686,-0.13,24.12,59.27
2203.5,-204.49019607843138,117.0,316.5098039215686,18.87,-1.21,31.79
2203.55,-108.49019607843137,150.0,301.5098039215686,43.51,-16.71,4.11
2203.6,-172.49019607843138,166.0,255.50980392156862,52.05,-26.34,-25.25
2203.65,-283.4901960784314,117.0,209.50980392156862,23.94,-38.83,-59.41
2203.7,88.01960784313725,35.0,132.50980392156862,-14.2,-43.21,-43.83
2203.75,311.01960784313724,-29.0,86.50980392156863,15.3,-43.17,-31.83
2203.8,-220.49019607843138,-13.0,-6.490196078431373,-31.52,-27.04,-35.26
2203.85,-283.4901960784314,-78.0,-36.490196078431374,-55.6,-23.33,-35.15
2203.9,-93.49019607843137,-29.0,39.509803921568626,-80.31,-12.02,-36.73
2203.95,2.5098039215686274,3.0,9.509803921568627,-70.86,-1.73,-21.01
2204.0,2.5098039215686274,199.0,9.509803921568627,-93.3,9.21,12.86
2204.05,-29.49019607843137,248.0,-83.49019607843137,-96.38,12.29,48.98
2204.1,-29.49019607843137,-263.5098039215686,-98.49019607843137,-79.33,14.71,89.51
2204.15,34.509803921568626,-100.50980392156863,-144.49019607843138,-46.01,13.97,111.38
2204.2,-13.490196078431373,95.49019607843137,-221.49019607843138,9.73,11.45,124.51
2204.25,-204.49019607843138,307.4901960784314,-298.4901960784314,55.2,26.33,184.01
2204.3,-220.49019607843138,-302.01960784313724,-190.49019607843138,93.77,46.14,217.22
2204.35,-124.49019607843137,-236.01960784313727,-283.4901960784314,147.84,73.86,214.14
2204.4,-140.49019607843138,-40.01960784313726,-175.49019607843138,126.91,99.97,192.13
2204.45,18.50980392156863,-318.01960784313724,-67.49019607843137,142.63,102.28,150.3
2204.5,208.50980392156862,193.49019607843138,-52.490196078431374,161.6,87.12,107.32
2204.55,288.5098039215686,-51.509803921568626,-21.49019607843137,194.78,51.6,39.6
2204.6,-84.0,-198.50980392156862,39.509803921568626,189.04,16.35,-27.1
2204.65,-52.0,101.0,193.50980392156862,193.34,-27.18,-77.64
2204.7,-20.0,35.0,209.50980392156862,117.95,-57.87,-112.19
2204.75,-84.0,-192.0,209.50980392156862,87.26,-70.89,-119.71
2204.8,-243.0,-176.0,-129.49019607843138,26.71,-73.13,-111.56
2204.85,-243.0,221.50980392156862,-160.49019607843138,10.15,-86.78,-111.98
2204.9,-211.0,254.50980392156862,-175.49019607843138,11.8,-64.07,-66.2
2204.95,224.50980392156862,-307.0,298.01960784313724,-53.05,11.03,-12.12
2205.0,161.50980392156862,-290.0,159.01960784313727,37.73,34.34,58.08
2205.05,320.5098039215686,-127.0,190.01960784313727,120.09,53.35,91.82
2205.1,129.50980392156862,-111.0,190.01960784313727,108.85,58.88,99.45
2205.15,224.50980392156862,172.50980392156862,236.01960784313727,90.3,50.06,94.86
2205.2,-275.0,74.50980392156863,-313.4901960784314,68.39,24.51,80.09
2205.25,-195.0,41.509803921568626,-98.49019607843137,35.07,5.85,49.82
2205.3,-179.0,-170.49019607843138,-113.49019607843137,17.64,-20.88,36.97
2205.35,-147.0,-23.49019607843137,39.509803921568626,-8.81,-51.47,2.6
2205.4,-131.0,-138.49019607843138,147.50980392156862,-67.71,-82.97,-42.05
2205.45,-259.0,-23.49019607843137,255.50980392156862,-194.24,-113.17,-107.5
2205.5,320.5098039215686,188.50980392156862,-264.0,263.41,-111.98,-175.19
2205.55,65.50980392156863,221.50980392156862,-64.0,249.27,-93.57,-249.28
2205.6,-204.49019607843138,-62.0,-64.0,-262.21,-86.47,-308.33
2205.65,152.01960784313727,281.0,316.5098039215686,-236.66,-103.06,271.78
2205.7,-245.98039215686273,248.0,-249.0,-271.9,-113.66,226.04
2205.75,-48.470588235294116,-263.5098039215686,-264.0,-234.52,-95.6,254.32
2205.8,276.03921568627453,13.490196078431373,224.50980392156862,-181.25,-63.33,-295.13
2205.85,-127.47058823529412,258.4901960784314,86.50980392156863,-134.88,-60.99,-182.36
2205.9,-229.98039215686273,95.49019607843137,116.50980392156863,-208.9,-18.25,-92.62
2205.95,-133.98039215686273,-149.50980392156862,224.50980392156862,-179.61,9.6,-75.51
2206.0,136.01960784313727,95.49019607843137,-264.0,-134.46,14.78,-60.98
2206.05,247.01960784313727,144.49019607843138,-295.0,-143.73,1.37,-34.35
2206.1,-204.49019607843138,46.490196078431374,-218.0,-139.81,-20.25,7.05
2206.15,-140.49019607843138,13.490196078431373,-218.0,-71.67,-38.59,56.54
2206.2,-204.49019607843138,-18.50980392156863,-295.0,-23.89,-41.28,101.41
2206.25,247.01960784313727,-149.50980392156862,286.5098039215686,-55.6,-22.21,106.27
2206.3,104.01960784313725,297.0,193.50980392156862,-83.04,-15.56,86.6
2206.35,216.01960784313727,199.0,101.50980392156863,-44.72,-20.28,57.2
2206.4,-204.49019607843138,215.0,24.50980392156863,39.34,-22.03,17.55
2206.45,-156.49019607843138,248.0,-113.49019607843137,50.47,-12.27,-15.66
2206.5,-156.49019607843138,133.0,-52.490196078431374,7.14,9.32,-50.66
2206.55,-188.49019607843138,35.0,70.50980392156863,-52.07,35.25,-89.44
2206.6,-299.4901960784314,68.0,147.50980392156862,-103.45,58.81,-110.75
2206.65,295.01960784313724,150.0,239.50980392156862,-109.43,57.65,-118.35
2206.7,231.01960784313727,281.0,-295.0,-161.34,76.1,-94.06
2206.75,269.52941176470586,-312.5098039215686,-141.0,-109.01,44.04,-15.87
2206.8,263.01960784313724,-198.50980392156862,-187.0,-44.51,24.05,31.65
2206.85,-156.49019607843138,183.0,-279.0,-165.68,66.96,14.47
2206.9,120.01960784313725,-127.0,-110.0,-182.79,77.78,-38.9
2206.95,263.01960784313724,35.0,-110.0,-84.93,57.86,-68.89
2207.0,-188.49019607843138,232.0,-279.0,-31.8,26.47,-107.5
2207.05,-93.49019607843137,199.0,-295.0,-32.99,3.86,-142.88
2207.1,-140.49019607843138,166.0,316.5098039215686,-51.82,-4.71,-157.3
2207.15,-252.49019607843138,166.0,178.50980392156862,-88.96,-4.53,-138.93
2207.2,-315.4901960784314,183.0,224.50980392156862,-104.85,-3.8,-109.53
2207.25,-299.4901960784314,199.0,178.50980392156862,-109.5,1.27,-77.22
2207.3,-283.4901960784314,297.0,178.50980392156862,-97.78,-0.26,-46.6
2207.35,-236.49019607843138,281.0,178.50980392156862,-88.68,-1.94,-14.47
2207.4,-188.49019607843138,281.0,147.50980392156862,-70.34,-2.22,7.22
2207.45,-156.49019607843138,248.0,132.50980392156862,-59.38,2.32,13.77
2207.5,-156.49019607843138,215.0,86.50980392156863,-52.03,13.83,2.92
2207.55,-267.4901960784314,183.0,70.50980392156863,-78.7,40.47,-15.24
2207.6,88.01960784313725,166.0,70.50980392156863,-114.86,55.06,-11.18
2207.65,120.01960784313725,183.0,209.50980392156862,-76.88,33.33,6.14
2207.7,-236.49019607843138,232.0,239.50980392156862,-51.33,28.64,4.77
2207.75,-156.49019607843138,183.0,270.5098039215686,-47.13,32.98,-10.41
2207.8,-252.49019607843138,150.0,-310.0,-59.56,34.66,-30.39
2207.85,-315.4901960784314,133.0,-264.0,-40.03,31.23,-42.12
2207.9,295.01960784313724,183.0,286.5098039215686,29.72,19.71,-50.55
2207.95,-315.4901960784314,248.0,70.50980392156863,30.87,21.18,-39.42
2208.0,-315.4901960784314,183.0,24.50980392156863,10.36,2.04,-29.13
2208.05,81.50980392156863,84.0,-113.49019607843137,10.12,0.81,-24.48
2208.1,-61.490196078431374,68.0,-113.49019607843137,25.83,-1.14,-11.7
2208.15,65.50980392156863,150.0,-144.49019607843138,42.07,-6.32,6.0
2208.2,208.50980392156862,150.0,-36.490196078431374,50.16,-13.7,10.48
2208.25,272.5098039215686,84.0,39.509803921568626,91.18,-26.79,11.6
2208.3,193.50980392156862,199.0,116.50980392156863,97.76,-41.0,13.98
2208.35,193.50980392156862,84.0,239.50980392156862,75.08,-57.42,3.41
2208.4,-77.49019607843137,19.0,-264.0,126.28,-66.45,-7.85
2208.45,-267.4901960784314,-45.0,-249.0,159.6,-48.42,-18.91
2208.5,311.01960784313724,-143.0,-126.0,83.79,-15.87,-17.86
2208.55,184.01960784313727,-241.0,12.0,92.09,-4.64,-2.71
2208.6,72.01960784313725,-111.0,-79.0,112.25,-11.78,-2.57
2208.65,88.01960784313725,-127.0,-18.0,98.42,-20.39,-16.32
2208.7,25.019607843137255,-241.0,-18.0,55.9,-32.25,-22.94
2208.75,-38.98039215686274,303.5098039215686,-49.0,20.93,-43.84,-10.9
2208.8,-197.98039215686273,-192.0,-95.0,-74.08,-44.22,-6.52
2208.85,253.52941176470588,74.50980392156863,27.0,59.61,-39.01,80.2
2208.9,-229.98039215686273,-225.0,-95.0,11.66,7.43,138.93
2208.95,-229.98039215686273,297.0,73.0,33.39,15.97,129.79
2209.0,253.52941176470588,117.0,-249.0,53.9,16.11,155.9
2209.05,-133.98039215686273,-78.0,-187.0,137.2,18.28,182.47
2209.1,-133.98039215686273,-214.50980392156862,-203.0,158.9,7.29,219.78
2209.15,-6.980392156862745,-198.50980392156862,-79.0,175.25,-5.44,246.03
2209.2,216.01960784313727,-116.50980392156863,43.0,201.39,-11.43,247.99
2209.25,-188.49019607843138,111.49019607843137,-33.0,185.71,18.03,228.35
2209.3,-77.49019607843137,226.49019607843138,-249.0,87.96,56.43,207.6
2209.35,81.50980392156863,-67.50980392156863,286.5098039215686,10.71,56.01,185.9
2209.4,272.5098039215686,-84.50980392156863,-310.0,16.94,34.87,165.81
2209.45,304.5098039215686,-35.509803921568626,-233.0,72.84,-16.75,38.13
2209.5,-211.0,-214.50980392156862,27.0,21.6,-8.31,-7.68
2209.55,-275.0,-78.0,12.0,153.62,11.73,-8.66
2209.6,320.5098039215686,73.98039215686275,286.5098039215686,189.81,2.07,4.81
2209.65,-100.0,291.4901960784314,147.50980392156862,37.87,-8.21,31.48
2209.7,-36.0,232.0,286.5098039215686,56.07,-12.48,41.17
2209.75,-84.0,13.490196078431373,252.01960784313727,37.94,-37.68,39.18
2209.8,-84.0,297.0,-98.49019607843137,51.63,-50.84,18.7
2209.85,-227.0,133.0,-190.49019607843138,12.71,-54.55,6.8
2209.9,256.5098039215686,68.0,-144.49019607843138,-31.73,-51.36,25.98
2209.95,-243.0,84.0,-236.49019607843138,-2.51,-53.64,28.85
2210.0,-100.0,248.0,-283.4901960784314,30.98,-35.58,34.66
2210.05,-100.0,281.0,221.01960784313727,63.63,-37.26,36.66
2210.1,-20.0,-198.50980392156862,-144.49019607843138,71.82,-4.39,55.52
2210.15,-131.0,248.0,175.01960784313727,15.96,-3.8,82.79
2210.2,-20.0,-280.5098039215686,-267.4901960784314,42.7,-26.9,90.52
2210.25,90.0,-67.50980392156863,144.01960784313727,8.89,-37.4,125.42
2210.3,42.0,-214.50980392156862,236.01960784313727,44.14,-45.2,132.07
2210.35,-52.0,-214.50980392156862,-190.49019607843138,-50.46,-23.85,116.7
2210.4,11.0,183.0,-236.49019607843138,108.54,-18.46,72.67
2210.45,-131.0,13.490196078431373,159.01960784313727,71.61,1.06,54.26
2210.5,-243.0,-263.5098039215686,-98.49019607843137,51.49,5.78,41.63
2210.55,-100.0,199.0,313.01960784313724,-9.47,28.92,5.47
2210.6,-84.0,101.0,-113.49019607843137,-33.59,42.11,-29.06
2210.65,320.5098039215686,117.0,206.01960784313727,-48.15,28.08,-59.93
2210.7,11.0,-29.0,-83.49019607843137,-88.54,21.81,-85.31
2210.75,-20.0,-312.5098039215686,-129.49019607843138,-91.37,11.42,-115.27
2210.8,-163.0,166.0,236.01960784313727,-125.64,-58.43,-183.59
2210.85,-131.0,3.0,301.5098039215686,-95.47,-94.45,-265.21
2210.9,34.509803921568626,281.0,193.50980392156862,-101.49,-65.22,-234.44
2210.95,311.01960784313724,79.49019607843137,-267.4901960784314,-1.07,-79.47,-216.87
2211.0,-299.4901960784314,-116.50980392156863,-206.49019607843138,-139.81,-72.68,-192.09
2211.05,279.01960784313724,101.0,132.50980392156862,-169.6,-44.78,-181.35
2211.1,263.01960784313724,281.0,-6.490196078431373,-57.53,-21.44,-172.91
2211.15,-315.4901960784314,-198.50980392156862,9.509803921568627,-31.31,-19.34,-157.06
2211.2,-204.49019607843138,-247.50980392156862,70.50980392156863,-67.22,-14.89,-125.14
2211.25,-236.49019607843138,264.0,55.509803921568626,-83.11,-7.05,-82.82
2211.3,-204.49019607843138,281.0,24.50980392156863,-68.13,-4.71,-32.77
2211.35,-108.49019607843137,-312.5098039215686,70.50980392156863,-42.2,-7.09,-5.58
2211.4,-124.49019607843137,-296.5098039215686,39.509803921568626,-34.81,-13.56,7.64
2211.45,-204.49019607843138,313.0,24.50980392156863,7.56,-18.64,21.43
2211.5,295.01960784313724,-263.5098039215686,-67.49019607843137,80.29,-13.11,55.77
2211.55,-315.4901960784314,-198.50980392156862,-221.49019607843138,129.85,11.63,81.14
2211.6,231.01960784313727,-263.5098039215686,-6.490196078431373,35.49,61.36,100.53
2211.65,88.01960784313725,150.0,70.50980392156863,-10.07,76.73,119.01
2211.7,247.01960784313727,183.0,147.50980392156862,-19.27,75.61,124.54
2211.75,-315.4901960784314,183.0,239.50980392156862,-20.08,70.88,115.41
2211.8,295.01960784313724,199.0,255.50980392156862,-4.15,39.03,80.55
2211.85,-188.49019607843138,215.0,-264.0,-4.68,19.64,49.64
2211.9,-156.49019607843138,199.0,-264.0,-2.16,-5.83,13.56
2211.95,-93.49019607843137,183.0,-233.0,1.4,-28.44,-19.44
2212.0,-108.49019607843137,199.0,-310.0,33.85,-44.64,-44.25
2212.05,-93.49019607843137,215.0,255.50980392156862,45.64,-45.38,-80.37
2212.1,-220.49019607843138,199.0,86.50980392156863,-44.33,-26.72,-101.02
2212.15,136.01960784313727,68.0,132.50980392156862,-85.91,-29.03,-90.91
2212.2,-204.49019607843138,150.0,55.509803921568626,-26.2,-48.63,-84.64
2212.25,-252.49019607843138,248.0,-6.490196078431373,-13.22,-41.07,-83.0
2212.3,311.01960784313724,264.0,-83.49019607843137,-10.7,-26.51,-60.0
2212.35,-188.49019607843138,248.0,-113.49019607843137,-13.6,-16.12,-44.5
2212.4,-108.49019607843137,248.0,9.509803921568627,-16.09,-4.74,-28.61
2212.45,-124.49019607843137,297.0,-6.490196078431373,1.19,-0.82,-9.15
2212.5,-93.49019607843137,-280.5098039215686,-52.490196078431374,0.67,10.26,16.32
2212.55,-156.49019607843138,313.0,9.509803921568627,-8.32,21.88,39.81
2212.6,-188.49019607843138,248.0,70.50980392156863,-13.5,23.88,49.92
2212.65,-236.49019607843138,232.0,86.50980392156863,-6.01,8.27,56.05
2212.7,-252.49019607843138,264.0,132.50980392156862,24.36,-9.43,48.24
2212.75,279.01960784313724,281.0,101.50980392156863,57.47,-19.13,47.79
2212.8,311.01960784313724,313.0,24.50980392156863,118.93,-32.6,60.56
2212.85,-77.49019607843137,297.0,147.50980392156862,130.83,-18.85,42.61
2212.9,-172.49019607843138,264.0,147.50980392156862,80.64,12.15,6.03
2212.95,263.01960784313724,183.0,193.50980392156862,11.27,37.98,0.57
2213.0,152.01960784313727,215.0,255.50980392156862,-16.37,40.05,36.17
2213.05,311.01960784313724,297.0,-295.0,31.05,9.07,68.68
2213.1,-156.49019607843138,-280.5098039215686,-279.0,61.92,-6.07,65.57
2213.15,-188.49019607843138,-312.5098039215686,-264.0,56.63,-9.43,47.61
2213.2,-283.4901960784314,297.0,-264.0,30.17,-8.98,31.79
2213.25,-283.4901960784314,232.0,-279.0,10.01,-8.28,26.58
2213.3,-267.4901960784314,248.0,270.5098039215686,5.18,-18.08,10.09
2213.35,295.01960784313724,248.0,239.50980392156862,-6.25,-23.99,13.7
2213.4,216.01960784313727,232.0,147.50980392156862,37.14,-35.44,45.62
2213.45,-61.490196078431374,281.0,-21.49019607843137,29.05,-24.87,70.05
2213.5,-13.490196078431373,264.0,9.509803921568627,0.88,-29.1,57.34
2213.55,-77.49019607843137,-312.5098039215686,-36.490196078431374,63.07,-47.48,83.14
2213.6,-124.49019607843137,30.49019607843137,-175.49019607843138,87.54,-57.45,146.03
2213.65,-61.490196078431374,128.49019607843138,-113.49019607843137,89.95,-45.9,186.35
2213.7,-13.490196078431373,95.49019607843137,-21.49019607843137,55.37,-43.42,206.48
2213.75,-13.490196078431373,128.49019607843138,86.50980392156863,42.39,-78.91,232.97
2213.8,97.50980392156863,291.4901960784314,193.50980392156862,26.78,-126.37,240.88
2213.85,145.50980392156862,209.49019607843138,-187.0,-6.18,-161.3,218.94
2213.9,177.50980392156862,-18.50980392156863,12.0,-13.46,-193.95,185.44
2213.95,240.50980392156862,-133.50980392156862,12.0,-6.6,-202.98,93.36
2214.0,224.50980392156862,-2.5098039215686274,-79.0,68.6,-212.47,61.44
2214.05,304.5098039215686,62.490196078431374,-203.0,-11.89,-177.05,114.15
2214.1,320.5098039215686,258.4901960784314,239.50980392156862,141.05,-172.04,109.74
2214.15,-116.0,106.98039215686275,-310.0,94.26,-142.57,120.83
2214.2,-36.0,209.49019607843138,-172.0,109.48,-126.33,100.43
2214.25,11.0,-286.01960784313724,-249.0,173.08,-101.94,91.12
2214.3,-147.0,-204.01960784313727,39.509803921568626,85.4,-79.54,73.48
