rel_time,acc_x,acc_y,acc_z,gyro_x,gyro_y,gyro_z
2401.0,152.01960784313727,-296.5098039215686,120.0,-107.8,-19.29,40.38
2401.05,-283.4901960784314,-100.50980392156863,-264.0,-133.35,-31.64,57.36
2401.1,49.509803921568626,46.490196078431374,-18.0,-111.51,-34.41,70.55
2401.15,200.01960784313727,13.490196078431373,12.0,-147.56,-6.41,84.59
2401.2,-204.49019607843138,-318.01960784313724,-95.0,-150.08,11.05,51.58
2401.25,177.50980392156862,95.49019607843137,-95.0,-67.58,16.89,-11.97
2401.3,193.50980392156862,313.0,12.0,-37.24,-17.5,-28.17
2401.35,193.50980392156862,-133.50980392156862,-215.50980392156862,-80.01,-1.05,-29.5
2401.4,-172.49019607843138,-214.50980392156862,-215.50980392156862,-106.4,17.0,11.02
2401.45,295.01960784313724,46.490196078431374,-307.5098039215686,-62.3,27.18,9.37
2401.5,34.509803921568626,-214.50980392156862,258.0,-40.39,11.68,10.7
2401.55,18.50980392156863,46.490196078431374,-230.50980392156862,6.29,4.82,5.7
2401.6,-172.49019607843138,-133.50980392156862,89.0,0.83,29.81,11.93
2401.65,295.01960784313724,-100.50980392156863,73.0,10.21,31.94,8.22
2401.7,-267.4901960784314,215.0,196.0,29.22,38.28,-5.28
2401.75,-220.49019607843138,-84.50980392156863,12.0,19.66,32.85,-5.95
2401.8,-252.49019607843138,209.49019607843138,-110.0,23.9,20.81,-14.94
2401.85,-188.49019607843138,-18.50980392156863,-276.5098039215686,1.26,28.33,-22.15
2401.9,-188.49019607843138,-2.5098039215686274,289.0,2.31,29.8,-31.95
2401.95,-140.49019607843138,-133.50980392156862,258.0,21.91,40.23,-39.16
2402.0,-156.49019607843138,-67.50980392156863,320.0,15.43,54.13,-42.31
2402.05,-140.49019607843138,-165.50980392156862,-261.5098039215686,-24.98,45.13,-45.74
2402.1,-77.49019607843137,177.49019607843138,243.0,-155.92,110.23,-60.12
2402.15,311.01960784313724,183.0,169.49019607843138,-68.94,179.29,-66.25
2402.2,200.01960784313727,-296.5098039215686,209.50980392156862,36.85,103.86,-86.69
2402.25,-77.49019607843137,232.0,215.49019607843138,75.84,88.36,-54.31
2402.3,-156.49019607843138,160.49019607843138,196.0,104.44,80.06,-54.42
2402.35,65.50980392156863,46.490196078431374,-3.0,58.55,65.61,-75.28
2402.4,-124.49019607843137,52.0,73.0,91.7,47.51,-96.59
2402.45,120.01960784313725,183.0,-64.0,106.4,14.23,-51.41
2402.5,9.019607843137255,-296.5098039215686,135.0,231.35,-37.0,57.78
2402.55,25.019607843137255,232.0,104.0,95.93,-59.37,152.21
2402.6,41.01960784313726,117.0,289.0,209.33,-122.47,194.18
2402.65,184.01960784313727,313.0,166.0,274.15,-120.44,193.37
2402.7,184.01960784313727,-280.5098039215686,89.0,183.19,-70.04,125.37
2402.75,263.01960784313724,-78.0,-49.0,22.26,-32.59,42.38
2402.8,263.01960784313724,270.5098039215686,-64.0,69.33,-28.15,26.0
2402.85,247.01960784313727,-13.0,-141.0,74.62,-15.51,46.06
2402.9,9.019607843137255,150.0,-126.0,73.29,1.03,32.83
2402.95,72.01960784313725,68.0,-64.0,8.15,33.34,-2.58
2403.0,120.01960784313725,-192.0,-187.0,53.16,22.28,-15.43
2403.05,184.01960784313727,117.0,163.50980392156862,17.6,14.44,-25.68
2403.1,279.01960784313724,52.0,-64.0,2.73,-16.18,-3.11
2403.15,-315.4901960784314,-165.50980392156862,-110.0,-9.58,29.45,-14.41
2403.2,216.01960784313727,275.4901960784314,-249.0,-64.5,23.26,-26.38
2403.25,-124.49019607843137,-133.50980392156862,-3.0,-39.33,29.17,-8.08
2403.3,200.01960784313727,-182.50980392156862,-95.0,29.85,-9.28,-10.91
2403.35,311.01960784313724,-143.0,-310.0,-29.74,19.37,14.66
2403.4,88.01960784313725,-2.5098039215686274,178.50980392156862,-61.0,16.54,0.1
2403.45,247.01960784313727,319.5098039215686,43.0,-64.15,6.74,-1.88
2403.5,104.01960784313725,52.0,150.0,-43.01,18.95,20.47
2403.55,120.01960784313725,144.49019607843138,270.5098039215686,-50.43,10.76,30.2
2403.6,231.01960784313727,-13.0,-156.0,-40.17,0.58,19.0
2403.65,-299.4901960784314,-296.5098039215686,-80.0,9.52,-5.75,20.79
2403.7,311.01960784313724,-280.5098039215686,255.50980392156862,113.12,-29.83,9.06
2403.75,-156.49019607843138,-263.5098039215686,-267.4901960784314,135.62,4.99,41.75
2403.8,-45.490196078431374,-2.5098039215686274,-37.490196078431374,181.75,10.62,22.64
2403.85,304.5098039215686,-78.0,175.01960784313727,141.47,-77.46,53.62
2403.9,-147.0,117.0,-76.50980392156863,133.94,-217.15,119.14
2403.95,-188.49019607843138,138.98039215686273,-184.50980392156862,-237.01,-229.64,53.62
2404.0,136.01960784313727,-192.52941176470588,166.0,-135.2,-50.72,-10.18
2404.05,-54.98039215686274,-170.9607843137255,135.0,-208.7,32.43,-9.23
2404.1,-61.490196078431374,-149.50980392156862,-267.4901960784314,-146.4,20.35,-24.32
2404.15,-140.49019607843138,19.0,-310.0,-28.03,-40.71,35.07
2404.2,200.01960784313727,-165.50980392156862,-184.50980392156862,-11.19,-44.49,71.89
2404.25,-229.98039215686273,-296.5098039215686,12.0,12.88,-53.38,24.67
2404.3,216.01960784313727,-214.50980392156862,181.0,-7.31,40.09,-21.97
2404.35,152.01960784313727,-45.0,101.50980392156863,-27.29,118.32,-16.9
2404.4,72.01960784313725,-62.0,-129.49019607843138,-23.16,162.38,-17.88
2404.45,216.01960784313727,-198.50980392156862,39.509803921568626,16.24,137.92,16.73
2404.5,-236.49019607843138,-18.50980392156863,-310.0,9.45,136.69,40.46
2404.55,295.01960784313724,-231.50980392156862,-79.0,22.26,136.8,43.61
2404.6,-299.4901960784314,297.0,163.50980392156862,6.33,143.13,26.67
2404.65,-204.49019607843138,35.0,193.50980392156862,-11.09,137.78,6.05
2404.7,-140.49019607843138,-62.0,-279.0,-22.99,109.46,14.77
2404.75,2.5098039215686274,-263.5098039215686,-126.0,-49.27,96.55,25.79
2404.8,208.50980392156862,199.0,-95.0,-51.51,78.38,20.16
2404.85,320.5098039215686,-116.50980392156863,-249.0,-52.81,64.14,-8.25
2404.9,-306.0,193.49019607843138,132.50980392156862,-57.08,67.74,-14.31
2404.95,-290.0,193.49019607843138,70.50980392156863,-6.57,56.72,-20.29
2405.0,320.5098039215686,193.49019607843138,101.50980392156863,8.71,58.05,-21.87
2405.05,240.50980392156862,193.49019607843138,147.50980392156862,21.1,46.99,-31.28
2405.1,-306.0,-67.50980392156863,39.509803921568626,16.24,40.62,-43.71
2405.15,-290.0,-2.5098039215686274,-21.49019607843137,-12.07,39.74,-57.92
2405.2,-259.0,79.49019607843137,-83.49019607843137,-28.03,45.41,-81.33
2405.25,177.50980392156862,-182.50980392156862,24.50980392156863,-41.43,36.77,-97.12
2405.3,272.5098039215686,-149.50980392156862,-6.490196078431373,-43.99,37.43,-106.08
2405.35,304.5098039215686,-100.50980392156863,116.50980392156863,-51.2,29.94,-111.47
2405.4,177.50980392156862,-231.50980392156862,-249.0,-78.36,29.03,-122.56
2405.45,97.50980392156863,-51.509803921568626,-249.0,-60.44,8.49,-122.39
2405.5,161.50980392156862,-67.50980392156863,209.50980392156862,-50.74,-5.33,-130.05
2405.55,145.50980392156862,79.49019607843137,255.50980392156862,-48.36,-20.69,-146.89
2405.6,161.50980392156862,-84.50980392156863,286.5098039215686,-95.79,-32.35,-145.42
2405.65,-13.490196078431373,-198.50980392156862,209.50980392156862,-78.78,-43.13,-101.6
2405.7,-283.4901960784314,-214.50980392156862,86.50980392156863,-48.47,-51.88,-31.14
2405.75,104.01960784313725,84.0,70.50980392156863,-46.09,-38.51,-0.69
2405.8,57.01960784313726,232.0,-203.0,-13.71,-41.34,28.94
2405.85,216.01960784313727,264.0,270.5098039215686,-10.84,-39.45,44.66
2405.9,-315.4901960784314,281.0,-249.0,-19.77,-36.65,31.78
2405.95,-61.490196078431374,248.0,-156.0,-27.99,-55.38,25.06
2406.0,-124.49019607843137,-51.509803921568626,-218.0,-33.14,-8.34,35.56
2406.05,-292.98039215686276,89.98039215686275,264.98039215686276,10.25,11.22,-12.1
2406.1,-282.5098039215686,101.94117647058823,-215.50980392156862,-34.22,-50.76,77.45
2406.15,49.509803921568626,-198.50980392156862,-3.0,61.25,-28.99,46.02
2406.2,297.0,-214.50980392156862,27.0,6.93,-2.98,35.91
2406.25,-306.0,133.0,120.0,17.92,31.59,51.13
2406.3,-172.49019607843138,46.490196078431374,116.50980392156863,-79.9,88.39,90.33
2406.35,295.01960784313724,79.49019607843137,-175.49019607843138,-135.65,121.99,19.39
2406.4,-13.490196078431373,-160.0,255.50980392156862,-119.38,102.18,-65.62
2406.45,240.50980392156862,-94.0,-249.0,155.05,-23.18,-59.18
2406.5,-4.0,52.0,80.98039215686275,-27.57,-48.69,-47.14
2406.55,-290.0,89.98039215686275,-295.0,-122.04,-54.22,136.01
2406.6,158.52941176470588,52.470588235294116,273.0,-69.57,-6.2,189.84
2406.65,79.52941176470588,73.98039215686275,166.0,123.06,20.98,138.07
2406.7,-133.98039215686273,-187.01960784313727,166.0,310.66,-158.45,-12.17
2406.75,256.5098039215686,-116.50980392156863,-15.509803921568627,121.1,-218.16,-85.92
2406.8,-52.0,161.01960784313727,-166.01960784313727,-43.74,-29.02,10.71
2406.85,311.01960784313724,232.47058823529412,-8.941176470588236,-68.87,-60.14,12.49
2406.9,113.50980392156863,-263.5098039215686,166.0,-43.78,-23.49,-18.12
2406.95,208.50980392156862,-84.50980392156863,-141.0,-77.9,7.89,-41.12
2407.0,49.509803921568626,79.49019607843137,104.0,-13.36,24.41,-44.27
2407.05,65.50980392156863,242.49019607843138,-126.0,-16.09,27.32,-48.33
2407.1,-29.49019607843137,111.49019607843137,-3.0,-18.3,18.95,-59.56
2407.15,-61.490196078431374,-2.5098039215686274,-33.0,1.85,-4.63,-67.58
2407.2,97.50980392156863,226.49019607843138,-49.0,74.09,-11.45,-86.9
2407.25,-77.49019607843137,209.49019607843138,27.0,117.88,-25.56,-72.97
2407.3,-77.49019607843137,-51.509803921568626,212.0,40.07,-46.59,-75.14
2407.35,-252.49019607843138,101.0,-230.50980392156862,-60.05,-33.96,-61.03
2407.4,295.01960784313724,-231.50980392156862,43.0,-2.72,2.29,-76.43
2407.45,2.5098039215686274,-116.50980392156863,150.0,-14.34,24.45,-65.83
2407.5,168.01960784313727,281.0,273.0,25.09,12.72,-33.0
2407.55,-315.4901960784314,199.0,-218.0,-24.42,13.91,-33.14
2407.6,279.01960784313724,166.0,27.0,-0.41,10.06,-3.14
2407.65,-236.49019607843138,46.490196078431374,-64.0,-12.98,16.08,22.54
2407.7,200.01960784313727,248.0,-64.0,-5.59,12.3,26.77
2407.75,295.01960784313724,232.0,-249.0,-47.91,29.03,14.66
2407.8,231.01960784313727,281.0,27.0,12.28,-12.01,4.65
2407.85,-236.49019607843138,-176.0,-95.0,-21.66,8.98,0.45
2407.9,-267.4901960784314,-214.50980392156862,-156.0,66.01,-23.25,16.8
2407.95,-204.49019607843138,-296.5098039215686,-126.0,-20.61,-7.5,-19.03
2408.0,-140.49019607843138,58.509803921568626,-61.509803921568626,160.26,-49.08,31.36
2408.05,-77.49019607843137,-263.5098039215686,-80.0,204.4,16.68,72.62
2408.1,231.01960784313727,-84.50980392156863,186.52941176470588,-227.39,59.52,-52.7
2408.15,113.50980392156863,194.01960784313727,147.50980392156862,-166.17,-27.55,-38.56
2408.2,42.0,-225.0,-138.50980392156862,111.51,28.65,-53.16
2408.25,161.50980392156862,128.49019607843138,184.49019607843138,37.87,25.5,-48.05
2408.3,-315.4901960784314,313.0,243.0,-57.08,7.68,-44.48
2408.35,263.01960784313724,166.0,-92.50980392156863,-75.73,-34.06,-26.94
2408.4,120.01960784313725,-263.5098039215686,304.0,-91.06,76.98,59.71
2408.45,-292.98039215686276,297.52941176470586,150.0,-60.96,-8.76,54.74
2408.5,65.50980392156863,-40.490196078431374,-187.0,36.19,15.66,53.48
2408.55,113.50980392156863,95.49019607843137,224.50980392156862,-9.16,-13.1,66.43
2408.6,-149.98039215686273,183.0,319.0,-29.88,-3.58,45.5
2408.65,-236.49019607843138,52.0,273.0,18.27,-29.76,-20.36
2408.7,208.50980392156862,-280.5098039215686,-126.0,103.46,-1.13,51.8
2408.75,104.01960784313725,232.0,-199.50980392156862,23.31,1.45,12.42
2408.8,97.50980392156863,-252.49019607843138,-160.49019607843138,1.61,17.69,8.33
2408.85,88.01960784313725,193.49019607843138,113.01960784313725,37.34,3.2,-18.54
2408.9,-70.98039215686275,46.490196078431374,-141.0,15.78,-5.05,23.69
2408.95,285.52941176470586,73.98039215686275,-172.0,40.77,-5.5,11.58
2409.0,-252.49019607843138,35.0,-33.0,-15.95,-0.67,15.08
2409.05,216.01960784313727,84.0,212.0,-2.3,-0.22,19.6
2409.1,231.01960784313727,297.0,89.0,-35.8,8.28,20.75
2409.15,247.01960784313727,-198.50980392156862,89.0,-10.88,13.0,31.46
2409.2,-220.49019607843138,-214.50980392156862,-49.0,3.81,19.2,35.17
2409.25,-204.49019607843138,-312.5098039215686,-110.0,8.68,36.31,45.01
2409.3,-315.4901960784314,-182.50980392156862,-33.0,4.93,44.5,37.31
2409.35,279.01960784313724,-67.50980392156863,-18.0,27.05,14.02,31.88
2409.4,-236.49019607843138,-18.50980392156863,-64.0,35.24,25.29,30.73
2409.45,-299.4901960784314,297.0,58.0,-58.3,31.34,5.35
2409.5,-236.49019607843138,-241.0,289.0,-44.65,6.32,-13.19
2409.55,-13.490196078431373,313.0,-156.0,-33.42,4.08,-6.33
2409.6,231.01960784313727,258.4901960784314,-156.0,1.43,-4.63,-4.12
2409.65,-156.49019607843138,-133.50980392156862,43.0,10.78,-6.06,-2.27
2409.7,216.01960784313727,-100.50980392156863,-64.0,22.22,-25.98,-5.87
2409.75,65.50980392156863,62.490196078431374,-95.0,38.78,-43.69,-4.51
2409.8,-124.49019607843137,-263.5098039215686,89.0,39.37,-35.85,1.89
2409.85,279.01960784313724,-67.50980392156863,196.0,53.37,-82.26,-8.43
2409.9,-140.49019607843138,-198.50980392156862,27.0,87.53,-20.45,39.69
2409.95,-45.490196078431374,84.0,150.0,-136.46,15.52,-6.92
2410.0,63.529411764705884,-2.5098039215686274,101.50980392156863,51.48,-20.87,-28.41
2410.05,113.50980392156863,106.98039215686275,-21.49019607843137,37.31,-39.7,-21.27
2410.1,231.01960784313727,264.0,273.0,-21.06,-4.0,-16.76
2410.15,-165.98039215686273,-100.50980392156863,-264.0,-81.09,-17.61,-61.91
2410.2,208.50980392156862,-1.9803921568627452,-92.50980392156863,85.22,17.24,-19.14
2410.25,-213.98039215686273,-263.03921568627453,129.01960784313727,77.59,-12.05,-22.15
2410.3,-245.98039215686273,-204.01960784313727,73.0,-45.63,-6.9,-33.52
2410.35,88.01960784313725,68.0,215.49019607843138,-70.59,1.17,-24.39
2410.4,200.01960784313727,52.0,-203.0,-6.75,-13.55,12.21
2410.45,279.01960784313724,128.49019607843138,-126.0,-6.43,-37.04,-3.91
2410.5,263.01960784313724,-182.50980392156862,-153.50980392156862,-14.45,-63.88,-11.02
2410.55,216.01960784313727,35.0,-92.50980392156863,42.52,-77.46,-14.62
2410.6,97.50980392156863,95.49019607843137,-49.0,23.97,-125.73,-28.62
2410.65,263.01960784313724,150.0,-261.5098039215686,-29.11,-114.49,-66.35
2410.7,208.50980392156862,-263.5098039215686,181.0,-16.55,-136.12,-34.64
2410.75,-252.49019607843138,-78.0,169.49019607843138,-31.04,-118.1,-21.73
2410.8,-299.4901960784314,117.0,107.49019607843137,-231.03,20.14,85.08
2410.85,216.01960784313727,-13.0,255.50980392156862,3.5,-3.89,-31.11
2410.9,201.0,281.0,212.0,3.78,-13.9,4.16
2410.95,301.52941176470586,-127.52941176470588,-196.01960784313727,37.13,45.83,-6.08
2411.0,-124.49019607843137,68.0,-156.0,-192.0,113.49,-19.28
2411.05,-117.98039215686275,-176.0,116.50980392156863,-130.12,211.42,16.69
2411.1,-101.98039215686275,-45.0,101.50980392156863,66.88,247.5,79.9
2411.15,41.01960784313726,-247.50980392156862,193.50980392156862,144.2,263.39,52.39
2411.2,-70.98039215686275,199.0,-95.0,227.81,222.93,4.51
2411.25,231.01960784313727,248.0,-33.0,225.12,147.61,-66.21
2411.3,25.019607843137255,-67.50980392156863,-261.5098039215686,239.15,29.7,-66.39
2411.35,136.01960784313727,-35.509803921568626,-30.50980392156863,192.5,-53.35,-31.18
2411.4,88.01960784313725,30.49019607843137,230.49019607843138,50.54,-68.22,-24.46
2411.45,-133.98039215686273,133.0,-122.50980392156863,2.55,-45.26,-33.49
2411.5,57.01960784313726,-160.0,-141.0,-90.71,-10.68,-30.37
2411.55,168.01960784313727,286.5098039215686,163.50980392156862,-50.15,26.34,-1.78
2411.6,279.01960784313724,172.50980392156862,193.50980392156862,65.48,11.57,10.85
2411.65,-315.4901960784314,-225.0,55.509803921568626,6.54,-27.31,6.33
2411.7,-283.4901960784314,-225.0,-79.0,-186.44,2.57,22.64
2411.75,216.01960784313727,254.50980392156862,55.509803921568626,-97.43,19.3,82.84
2411.8,-165.98039215686273,-241.0,104.0,-253.74,-22.76,175.35
2411.85,-292.98039215686276,101.0,-156.0,-99.15,-87.47,175.1
2411.9,-245.98039215686273,133.0,243.0,1.71,-127.76,162.22
2411.95,216.01960784313727,79.49019607843137,-187.0,-13.12,-147.15,151.65
2412.0,-156.49019607843138,-84.50980392156863,-64.0,9.9,-136.82,124.91
2412.05,18.50980392156863,313.0,-233.0,51.69,-101.37,88.48
2412.1,81.50980392156863,183.0,178.50980392156862,-57.85,-58.42,37.24
2412.15,25.019607843137255,-89.49019607843137,-95.0,75.07,2.75,0.31
2412.2,-236.49019607843138,144.49019607843138,-21.49019607843137,-104.29,13.42,3.78
2412.25,-93.49019607843137,35.0,12.0,202.86,11.88,31.53
2412.3,-220.49019607843138,73.98039215686275,-110.0,-199.66,-29.79,4.93
2412.35,193.50980392156862,24.980392156862745,320.0,193.23,-36.79,7.56
2412.4,-283.4901960784314,52.0,58.0,2.06,-3.47,23.62
2412.45,263.01960784313724,-62.0,-110.0,-33.63,1.56,11.69
2412.5,-45.490196078431374,-35.509803921568626,209.50980392156862,5.07,-12.33,-2.9
2412.55,-13.490196078431373,13.490196078431373,-233.0,-26.07,-11.21,-12.87
2412.6,-61.490196078431374,-100.50980392156863,270.5098039215686,-28.06,-32.52,-21.13
2412.65,-77.49019607843137,-198.50980392156862,-80.0,-63.8,-32.8,-36.74
2412.7,-156.49019607843138,35.0,-249.0,-192.25,-39.8,-60.33
2412.75,-172.49019607843138,166.0,-203.0,-308.41,-46.35,-55.71
2412.8,-252.49019607843138,-18.50980392156863,-169.50980392156862,-61.7,-60.52,-31.77
2412.85,-220.49019607843138,209.49019607843138,12.0,13.05,-73.79,1.36
2412.9,-156.49019607843138,258.4901960784314,89.0,-148.6,-105.01,-0.97
2412.95,65.50980392156863,111.49019607843137,-230.50980392156862,60.3,-38.23,1.33
2413.0,311.01960784313724,-78.52941176470588,163.50980392156862,-64.29,-35.18,17.15
2413.05,2.5098039215686274,313.0,89.0,-0.03,-11.21,41.4
2413.1,-156.49019607843138,144.49019607843138,120.0,-35.8,-53.17,7.56
2413.15,208.50980392156862,-12.529411764705882,-147.98039215686273,116.23,-52.68,-5.98
2413.2,224.50980392156862,-73.01960784313725,-307.5098039215686,65.87,-43.76,-1.22
2413.25,81.50980392156863,-214.50980392156862,30.49019607843137,30.2,8.1,-9.62
2413.3,-108.49019607843137,-100.50980392156863,-276.5098039215686,23.76,37.5,6.23
2413.35,-45.490196078431374,-35.509803921568626,-3.0,64.12,4.01,12.32
2413.4,-267.4901960784314,281.0,120.0,116.93,-10.51,-34.29
2413.45,-108.49019607843137,209.49019607843138,-172.0,-23.13,-14.6,2.69
2413.5,-270.47058823529414,89.98039215686275,-33.0,-30.44,-17.72,29.85
2413.55,304.5098039215686,-241.52941176470588,-292.5098039215686,-23.86,-23.77,19.35
2413.6,11.0,291.4901960784314,92.49019607843137,22.15,-27.9,-5.73
2413.65,320.5098039215686,-100.50980392156863,289.0,-65.27,-11.31,10.99
2413.7,272.5098039215686,-40.01960784313726,89.0,-54.42,-27.31,-1.39
2413.75,161.50980392156862,291.4901960784314,-138.50980392156862,7.8,-64.97,-57.53
2413.8,304.5098039215686,30.49019607843137,-261.5098039215686,29.4,-75.5,-34.75
2413.85,311.01960784313724,-133.50980392156862,-3.0,47.63,-16.7,-71.88
2413.9,72.01960784313725,-176.0,-138.50980392156862,14.56,19.16,18.69
2413.95,-54.98039215686274,68.0,255.50980392156862,59.78,34.32,-17.77
2414.0,247.01960784313727,24.980392156862745,15.490196078431373,52.04,69.84,-83.78
2414.05,152.01960784313727,232.0,104.0,-145.7,134.94,-29.88
2414.1,63.529411764705884,-241.0,27.0,-177.37,182.72,14.1
2414.15,301.52941176470586,166.0,-199.50980392156862,-114.76,212.75,20.51
2414.2,-229.98039215686273,199.0,227.0,-227.18,231.96,25.65
2414.25,-260.98039215686276,-143.0,107.49019607843137,-224.13,231.65,58.55
2414.3,-213.98039215686273,19.0,-153.50980392156862,-209.01,188.53,66.25
2414.35,104.01960784313725,35.0,320.0,-153.43,150.45,48.3
2414.4,-315.4901960784314,-111.0,227.0,-74.54,121.78,14.1
2414.45,-283.4901960784314,-29.0,58.0,-4.86,106.07,-42.66
2414.5,279.01960784313724,166.0,-3.0,30.66,108.59,-79.62
2414.55,247.01960784313727,-312.5098039215686,-49.0,58.97,104.07,-88.51
2414.6,-204.49019607843138,-18.50980392156863,-156.0,25.9,88.01,-76.92
2414.65,2.5098039215686274,-100.50980392156863,-80.0,16.41,82.02,-52.98
2414.7,81.50980392156863,13.490196078431373,-172.0,-13.99,72.82,-18.82
2414.75,193.50980392156862,-35.509803921568626,-218.0,-36.53,57.35,-0.76
2414.8,240.50980392156862,-133.50980392156862,-156.0,-31.32,32.95,9.06
2414.85,240.50980392156862,-149.50980392156862,-172.0,-30.86,13.7,7.56
2414.9,81.50980392156863,-149.50980392156862,-295.0,-4.61,-7.71,6.47
2414.95,-77.49019607843137,-149.50980392156862,163.50980392156862,-2.27,-18.59,3.78
2415.0,-283.4901960784314,313.0,-21.49019607843137,-29.6,-4.24,-17.0
2415.05,200.01960784313727,117.0,-113.49019607843137,-66.11,6.95,-39.37
2415.1,120.01960784313725,19.0,-83.49019607843137,-20.15,-1.23,-29.11
2415.15,-124.49019607843137,133.0,-221.49019607843138,-33.21,19.44,-24.39
2415.2,-204.49019607843138,-78.0,-144.49019607843138,-107.51,49.93,-57.92
2415.25,-124.49019607843137,-143.0,39.509803921568626,-75.49,53.99,-83.08
2415.3,81.50980392156863,68.0,70.50980392156863,-30.86,45.45,-107.34
2415.35,81.50980392156863,215.0,147.50980392156862,-36.29,27.67,-126.94
2415.4,18.50980392156863,183.0,178.50980392156862,-35.66,3.24,-124.45
2415.45,-45.490196078431374,264.0,178.50980392156862,-14.94,-20.76,-113.04
2415.5,-45.490196078431374,-312.5098039215686,147.50980392156862,-4.4,-42.6,-98.83
2415.55,-77.49019607843137,-296.5098039215686,70.50980392156863,-6.89,-57.48,-85.53
2415.6,-188.49019607843138,-280.5098039215686,55.509803921568626,16.94,-79.21,-70.73
2415.65,311.01960784313724,-198.50980392156862,-67.49019607843137,79.06,-52.65,-21.41
2415.7,88.01960784313725,-2.5098039215686274,-313.4901960784314,144.02,-11.24,98.52
2415.75,231.01960784313727,-35.509803921568626,-144.49019607843138,93.45,48.49,180.53
2415.8,136.01960784313727,264.0,-98.49019607843137,59.67,73.34,210.28
2415.85,168.01960784313727,166.0,-36.490196078431374,17.18,95.99,206.81
2415.9,104.01960784313725,84.0,55.509803921568626,-1.99,97.53,176.71
2415.95,231.01960784313727,101.0,163.50980392156862,-3.7,79.64,133.63
2416.0,-283.4901960784314,84.0,-295.0,12.88,46.64,80.57
2416.05,-204.49019607843138,133.0,-249.0,38.08,7.26,38.36
2416.1,-77.49019607843137,150.0,-203.0,47.84,-22.41,-3.74
2416.15,-220.49019607843138,133.0,-249.0,36.05,-40.85,-45.42
2416.2,279.01960784313724,101.0,301.5098039215686,1.89,-59.47,-85.88
2416.25,104.01960784313725,35.0,193.50980392156862,42.24,-80.12,-47.14
2416.3,-220.49019607843138,199.0,-21.49019607843137,-18.16,-47.75,-34.47
2416.35,-299.4901960784314,-13.0,-67.49019607843137,-100.62,-20.62,-61.38
2416.4,-172.49019607843138,-111.0,24.50980392156863,-111.92,-7.18,-92.11
2416.45,-13.490196078431373,68.0,39.509803921568626,-58.09,-10.4,-119.73
2416.5,2.5098039215686274,232.0,39.509803921568626,-17.21,-26.29,-134.39
2416.55,-45.490196078431374,215.0,24.50980392156863,-2.02,-32.59,-126.48
2416.6,-124.49019607843137,248.0,-67.49019607843137,-17.67,-22.2,-104.71
2416.65,-220.49019607843138,215.0,-98.49019607843137,-48.61,-7.71,-73.84
2416.7,-299.4901960784314,264.0,-52.490196078431374,-35.17,-20.27,-35.55
2416.75,-315.4901960784314,-263.5098039215686,-6.490196078431373,25.23,1.77,7.66
2416.8,-6.980392156862745,-149.50980392156862,-175.49019607843138,100.06,8.91,84.7
2416.85,295.01960784313724,-84.50980392156863,-67.49019607843137,98.73,37.89,141.78
2416.9,216.01960784313727,-312.5098039215686,-6.490196078431373,63.24,63.51,179.62
2416.95,200.01960784313727,183.0,24.50980392156863,46.09,77.3,181.72
2417.0,263.01960784313724,166.0,147.50980392156862,17.39,75.37,149.03
2417.05,-299.4901960784314,117.0,255.50980392156862,-8.01,69.56,116.3
2417.1,311.01960784313724,84.0,301.5098039215686,11.41,48.81,89.07
2417.15,-236.49019607843138,166.0,-295.0,19.28,19.44,62.58
2417.2,-188.49019607843138,133.0,-264.0,19.98,-13.45,28.0
2417.25,-315.4901960784314,117.0,-295.0,-5.28,-34.45,-17.14
2417.3,263.01960784313724,68.0,270.5098039215686,-18.61,-48.41,-50.18
2417.35,136.01960784313727,3.0,224.50980392156862,15.89,-63.46,-38.98
2417.4,-204.49019607843138,117.0,-37.490196078431374,-35.06,-41.66,-54.03
2417.45,-267.4901960784314,-94.0,-98.49019607843137,-89.1,-16.74,-98.8
2417.5,-156.49019607843138,-111.0,-67.49019607843137,-64.92,-15.09,-124.73
2417.55,18.50980392156863,68.0,-52.490196078431374,-38.0,-19.29,-147.31
2417.6,-13.490196078431373,199.0,24.50980392156863,-29.36,-28.22,-153.19
2417.65,-124.49019607843137,232.0,9.509803921568627,-11.93,-30.18,-127.18
2417.7,-204.49019607843138,313.0,24.50980392156863,-12.03,-25.45,-84.41
2417.75,-220.49019607843138,313.0,-6.490196078431373,-25.26,-19.61,-42.31
2417.8,311.01960784313724,-312.5098039215686,-21.49019607843137,-4.02,-35.57,-20.61
2417.85,279.01960784313724,-263.5098039215686,39.509803921568626,29.99,3.2,26.95
2417.9,-54.98039215686274,-100.50980392156863,313.01960784313724,95.72,21.23,101.5
2417.95,-315.4901960784314,-100.50980392156863,24.50980392156863,26.53,71.0,152.91
2418.0,120.01960784313725,199.0,9.509803921568627,-8.78,77.79,182.91
2418.05,200.01960784313727,166.0,116.50980392156863,-18.96,71.1,184.83
2418.1,247.01960784313727,183.0,224.50980392156862,3.04,55.56,153.61
2418.15,-315.4901960784314,183.0,286.5098039215686,19.28,36.49,108.67
2418.2,-299.4901960784314,133.0,-264.0,22.01,8.52,64.61
2418.25,-140.49019607843138,117.0,-203.0,22.78,-15.16,19.67
2418.3,-124.49019607843137,101.0,-233.0,36.96,-36.55,-20.22
2418.35,-204.49019607843138,133.0,-279.0,34.26,-56.25,-67.37
2418.4,-283.4901960784314,84.0,270.5098039215686,-1.53,-53.66,-101.11
2418.45,57.01960784313726,84.0,193.50980392156862,20.58,-66.09,-85.39
2418.5,-315.4901960784314,150.0,39.509803921568626,-2.65,-53.59,-73.42
2418.55,311.01960784313724,52.0,-67.49019607843137,-56.94,-26.71,-82.66
2418.6,-283.4901960784314,-13.0,-83.49019607843137,-79.97,-10.68,-93.16
2418.65,-124.49019607843137,101.0,-6.490196078431373,-45.25,-4.45,-99.67
2418.7,-124.49019607843137,232.0,55.509803921568626,-20.54,-8.55,-89.84
2418.75,-156.49019607843138,313.0,70.50980392156863,-5.49,-16.67,-66.77
2418.8,-140.49019607843138,297.0,39.509803921568626,26.56,-19.43,-41.57
2418.85,-93.49019607843137,-296.5098039215686,24.50980392156863,28.45,-8.51,-12.49
2418.9,-204.49019607843138,-280.5098039215686,55.509803921568626,4.27,-7.88,22.47
2418.95,-252.49019607843138,297.0,101.50980392156863,29.64,-7.5,49.77
2419.0,200.01960784313727,-247.50980392156862,-52.490196078431374,103.42,6.67,79.13
2419.05,247.01960784313727,-165.50980392156862,-67.49019607843137,87.64,53.36,100.27
2419.1,-117.98039215686275,281.0,9.509803921568627,15.26,80.03,131.07
2419.15,-70.98039215686275,183.0,132.50980392156862,7.8,71.28,181.58
2419.2,247.01960784313727,215.0,209.50980392156862,35.66,59.03,183.89
2419.25,295.01960784313724,199.0,-310.0,25.51,66.24,153.26
2419.3,231.01960784313727,133.0,316.5098039215686,-22.6,57.42,109.55
2419.35,-188.49019607843138,35.0,-187.0,-60.93,40.9,57.78
2419.4,-156.49019607843138,19.0,-203.0,-37.9,8.66,4.93
2419.45,-108.49019607843137,133.0,-203.0,22.43,-31.68,-48.33
2419.5,-77.49019607843137,183.0,-295.0,67.58,-59.09,-117.56
2419.55,-283.4901960784314,150.0,178.50980392156862,46.23,-60.63,-145.21
2419.6,72.01960784313725,150.0,39.509803921568626,36.5,-85.41,-118.33
2419.65,-93.49019607843137,101.0,-52.490196078431374,3.6,-64.9,-102.82
2419.7,-299.4901960784314,35.0,-221.49019607843138,-56.1,-37.07,-109.05
2419.75,295.01960784313724,35.0,-98.49019607843137,-67.19,-33.47,-112.48
2419.8,-156.49019607843138,133.0,39.509803921568626,-22.08,-33.5,-107.72
2419.85,-172.49019607843138,-312.5098039215686,39.509803921568626,16.76,-32.87,-80.35
2419.9,-172.49019607843138,-263.5098039215686,-6.490196078431373,30.73,-29.72,-26.1
2419.95,-108.49019607843137,-296.5098039215686,9.509803921568627,31.18,-21.15,16.2
2420.0,-124.49019607843137,297.0,9.509803921568627,21.21,-2.32,55.75
2420.05,-267.4901960784314,313.0,-6.490196078431373,16.34,-11.77,88.16
2420.1,-252.49019607843138,248.0,101.50980392156863,46.27,-11.84,86.2
2420.15,25.019607843137255,297.0,70.50980392156863,94.64,2.15,125.33
2420.2,279.01960784313724,-263.5098039215686,70.50980392156863,98.84,24.59,134.12
2420.25,184.01960784313727,248.0,286.5098039215686,9.17,55.91,113.29
2420.3,-70.98039215686275,84.0,316.5098039215686,-36.57,58.85,110.91
2420.35,88.01960784313725,117.0,-203.0,-34.78,45.03,115.5
2420.4,231.01960784313727,166.0,-172.0,-8.36,13.35,93.13
2420.45,-315.4901960784314,166.0,-141.0,3.81,-13.06,39.34
2420.5,-204.49019607843138,117.0,-110.0,-15.57,-30.11,-18.72
2420.55,-172.49019607843138,117.0,-95.0,-19.84,-37.07,-52.7
2420.6,-156.49019607843138,248.0,-203.0,-43.57,-22.13,-61.0
2420.65,-236.49019607843138,-214.50980392156862,-264.0,-71.78,-0.43,-80.25
2420.7,-299.4901960784314,-165.50980392156862,270.5098039215686,-38.04,14.86,-77.2
2420.75,311.01960784313724,-100.50980392156863,224.50980392156862,11.9,-2.07,-37.02
2420.8,65.50980392156863,-84.50980392156863,86.50980392156863,2.9,-5.89,-27.68
2420.85,177.50980392156862,-312.5098039215686,24.50980392156863,-32.16,8.52,-38.84
2420.9,34.509803921568626,248.0,55.509803921568626,-37.06,10.52,-39.19
2420.95,113.50980392156863,297.0,193.50980392156862,-20.4,6.42,-40.31
2421.0,65.50980392156863,264.0,316.5098039215686,2.9,-0.81,-30.34
2421.05,2.5098039215686274,297.0,-264.0,13.86,-4.42,-14.55
2421.1,-93.49019607843137,215.0,-203.0,-7.62,-6.1,2.97
2421.15,-172.49019607843138,117.0,-80.0,-68.38,18.32,-14.45
2421.2,72.01960784313725,117.0,-310.0,-45.0,-5.61,-2.2
2421.25,-117.98039215686275,-29.0,-172.0,-28.1,-25.63,-12.77
2421.3,-22.980392156862745,52.0,-233.0,4.27,-48.24,5.42
2421.35,-165.98039215686273,-263.5098039215686,-295.0,-55.08,20.0,4.06
2421.4,-276.98039215686276,-100.50980392156863,43.0,-32.44,17.34,40.74
2421.45,25.019607843137255,-164.98039215686273,-92.50980392156863,6.61,27.28,6.79
2421.5,161.50980392156862,30.49019607843137,150.0,-27.43,11.92,39.51
2421.55,295.01960784313724,52.0,-310.0,-23.41,-8.41,31.71
2421.6,-283.4901960784314,-198.50980392156862,86.50980392156863,-32.51,-30.0,34.3
2421.65,88.01960784313725,-263.5098039215686,-233.0,-5.56,-13.24,37.03
2421.7,-117.98039215686275,-149.50980392156862,-18.0,-54.45,22.63,40.04
2421.75,-140.49019607843138,62.490196078431374,24.50980392156863,-39.68,-44.46,58.31
2421.8,184.01960784313727,-84.50980392156863,147.50980392156862,3.01,-64.44,64.68
2421.85,152.01960784313727,-198.50980392156862,104.0,80.01,-78.23,69.82
2421.9,168.01960784313727,62.490196078431374,-80.0,156.69,-71.41,56.42
2421.95,-140.49019607843138,128.49019607843138,-310.0,218.99,-8.58,39.02
2422.0,97.50980392156863,177.49019607843138,-95.0,114.38,-106.83,-9.2
2422.05,-36.0,30.49019607843137,80.98039215686275,-32.79,-43.55,-40.8
2422.1,-283.4901960784314,-73.01960784313725,116.50980392156863,19.98,-67.59,39.93
2422.15,97.50980392156863,-67.50980392156863,-156.0,49.77,-60.07,67.97
2422.2,49.509803921568626,226.49019607843138,239.50980392156862,30.1,-50.65,85.99
2422.25,129.50980392156862,128.49019607843138,-218.0,60.62,-53.84,84.66
2422.3,65.50980392156863,193.49019607843138,-187.0,60.69,-63.6,94.53
2422.35,129.50980392156862,62.490196078431374,-187.0,84.03,-91.95,98.94
2422.4,208.50980392156862,111.49019607843137,-233.0,67.62,-103.01,100.9
2422.45,272.5098039215686,30.49019607843137,-95.0,29.85,-111.9,94.81
2422.5,320.5098039215686,-67.50980392156863,43.0,19.67,-99.9,58.48
2422.55,-227.0,13.490196078431373,-156.0,3.11,-104.34,12.46
2422.6,-52.0,-67.50980392156863,150.0,12.25,-110.36,9.06
2422.65,-163.0,160.49019607843138,273.0,25.2,-113.27,26.77
2422.7,-243.0,-8.019607843137255,43.0,50.75,-110.12,50.26
2422.75,320.5098039215686,-8.019607843137255,-110.0,59.29,-117.26,46.41
2422.8,-195.0,-318.01960784313724,-110.0,52.25,-123.38,32.48
2422.85,-179.0,111.49019607843137,-64.0,44.38,-118.59,18.9
2422.9,-131.0,111.49019607843137,-49.0,29.99,-108.72,14.7
2422.95,-211.0,144.49019607843138,-64.0,29.61,-98.78,7.8
2423.0,-163.0,258.4901960784314,-110.0,27.68,-91.71,6.86
2423.05,-211.0,242.49019607843138,301.5098039215686,28.35,-90.34,9.94
2423.1,-131.0,-286.01960784313724,-172.0,30.03,-82.92,18.62
2423.15,-147.0,-302.01960784313724,-203.0,26.84,-69.48,24.04
2423.2,-179.0,209.49019607843138,-126.0,16.03,-42.18,19.18
2423.25,-227.0,193.49019607843138,-33.0,-31.84,-5.12,11.13
2423.3,320.5098039215686,291.4901960784314,-95.0,-33.14,-12.05,21.0
2423.35,256.5098039215686,-286.01960784313724,-249.0,-14.31,-23.81,21.07
2423.4,288.5098039215686,-302.01960784313724,209.50980392156862,-3.14,-18.73,13.09
2423.45,-290.0,226.49019607843138,255.50980392156862,2.9,-18.7,-2.27
2423.5,-243.0,95.49019607843137,286.5098039215686,-3.56,-19.5,-21.03
2423.55,-179.0,79.49019607843137,270.5098039215686,14.84,-31.19,-30.86
2423.6,-116.0,193.49019607843138,-310.0,15.99,-42.53,-17.63
2423.65,-147.0,307.4901960784314,-264.0,-0.06,-42.88,-1.64
2423.7,-52.0,258.4901960784314,-218.0,2.17,-39.03,14.91
2423.75,-84.0,258.4901960784314,-264.0,-11.12,-22.51,28.87
2423.8,-163.0,307.4901960784314,-264.0,-4.4,-25.21,30.03
2423.85,-36.0,291.4901960784314,-264.0,0.56,-49.43,22.4
2423.9,-4.0,-236.01960784313727,-295.0,12.0,-69.06,26.63
2423.95,-163.0,187.98039215686273,301.5098039215686,27.02,-99.9,33.32
2424.0,-195.0,-220.01960784313727,-141.0,46.02,-97.69,-1.04
2424.05,-195.0,128.49019607843138,-33.0,34.02,-67.31,7.1
2424.1,320.5098039215686,209.49019607843138,89.0,33.21,-47.33,24.81
2424.15,320.5098039215686,307.4901960784314,27.0,26.21,-37.04,23.9
2424.2,-227.0,160.49019607843138,-95.0,15.92,-38.82,8.96
2424.25,-147.0,-2.5098039215686274,27.0,10.08,-33.54,-4.33
2424.3,-179.0,79.49019607843137,-126.0,14.45,-22.65,-8.22
2424.35,-211.0,209.49019607843138,-233.0,11.79,15.45,3.46
2424.4,-306.0,-285.01960784313724,-295.0,21.21,39.99,5.6
2424.45,288.5098039215686,-269.01960784313724,316.5098039215686,-26.28,81.92,-17.56
2424.5,193.50980392156862,-220.01960784313727,-218.0,-37.41,67.78,-15.92
2424.55,288.5098039215686,-138.01960784313727,-295.0,-45.81,40.58,-3.04
2424.6,240.50980392156862,307.4901960784314,316.5098039215686,-33.77,44.99,-11.68
2424.65,-306.0,30.49019607843137,-218.0,-30.83,50.94,-32.75
2424.7,-179.0,-149.50980392156862,-126.0,-34.64,56.79,-38.49
2424.75,-195.0,-2.5098039215686274,-126.0,-5.94,49.75,-33.42
2424.8,-68.0,291.4901960784314,270.5098039215686,13.4,22.94,-11.26
2424.85,-116.0,-138.01960784313727,255.50980392156862,9.94,-2.49,-3.91
2424.9,11.0,-318.01960784313724,270.5098039215686,0.98,-19.4,-0.55
2424.95,42.0,209.49019607843138,-279.0,-4.93,-23.25,9.13
2425.0,-20.0,226.49019607843138,-187.0,6.61,-23.25,34.61
2425.05,27.0,-220.01960784313727,286.5098039215686,4.13,-44.95,35.59
2425.1,-36.0,138.98039215686273,-249.0,18.34,-83.2,38.81
2425.15,272.5098039215686,89.98039215686275,-310.0,57.36,-93.39,8.15
2425.2,304.5098039215686,307.4901960784314,-218.0,67.41,-79.88,-0.48
2425.25,304.5098039215686,144.49019607843138,-49.0,73.43,-57.97,8.75
2425.3,288.5098039215686,226.49019607843138,-33.0,94.08,-47.5,3.92
2425.35,-275.0,177.49019607843138,-110.0,78.36,-46.87,3.18
2425.4,-227.0,13.490196078431373,-95.0,45.57,-42.57,-4.75
2425.45,-275.0,-51.509803921568626,-172.0,16.1,-23.21,-2.72
2425.5,-259.0,95.49019607843137,-279.0,-10.84,23.43,4.16
2425.55,256.5098039215686,242.49019607843138,224.50980392156862,-2.37,62.21,12.49
2425.6,240.50980392156862,226.49019607843138,116.50980392156863,-28.06,96.2,-15.95
2425.65,208.50980392156862,226.49019607843138,163.50980392156862,-69.64,97.14,-17.98
2425.7,49.509803921568626,-187.01960784313727,301.5098039215686,-57.15,60.04,-1.43
2425.75,288.5098039215686,242.49019607843138,255.50980392156862,-58.69,59.62,-21.66
2425.8,288.5098039215686,-2.5098039215686274,-295.0,-54.21,59.24,-51.97
2425.85,-243.0,-67.50980392156863,-218.0,-37.58,52.8,-54.49
2425.9,-131.0,79.49019607843137,286.5098039215686,-26.73,44.89,-39.72
2425.95,-36.0,-318.01960784313724,224.50980392156862,-15.6,31.69,-18.16
2426.0,27.0,-236.01960784313727,163.50980392156862,2.1,2.36,0.52
2426.05,106.0,-318.01960784313724,147.50980392156862,0.14,-20.52,4.97
2426.1,-36.0,275.4901960784314,286.5098039215686,6.79,-27.97,25.02
2426.15,27.0,307.4901960784314,301.5098039215686,21.8,-50.41,36.99
2426.2,42.0,-269.01960784313724,239.50980392156862,15.61,-67.63,32.09
2426.25,-195.0,73.98039215686275,270.5098039215686,-2.51,-79.56,35.38
2426.3,224.50980392156862,-204.01960784313727,-203.0,48.12,-71.65,4.65
2426.35,-243.0,242.49019607843138,-310.0,54.25,-58.91,24.15
2426.4,145.50980392156862,-286.01960784313724,-218.0,60.37,-49.57,29.29
2426.45,240.50980392156862,177.49019607843138,-187.0,38.78,-38.12,9.94
2426.5,-227.0,-67.50980392156863,-187.0,6.89,-32.63,-12.31
2426.55,-195.0,-84.50980392156863,-141.0,-8.25,-12.75,-20.33
2426.6,-259.0,-35.509803921568626,-218.0,-14.97,13.84,-19.66
2426.65,304.5098039215686,160.49019607843138,-280.0,-14.38,43.73,-2.69
2426.7,224.50980392156862,-286.01960784313724,209.50980392156862,-9.86,80.24,-8.57
2426.75,224.50980392156862,-253.01960784313727,132.50980392156862,-49.17,99.03,-14.34
2426.8,81.50980392156863,-106.01960784313725,270.5098039215686,-47.66,63.54,10.18
2426.85,240.50980392156862,291.4901960784314,239.50980392156862,-49.2,69.95,-16.2
2426.9,256.5098039215686,13.490196078431373,-203.0,-42.66,71.42,-43.15
2426.95,-227.0,-182.50980392156862,-126.0,-46.4,67.92,-53.05
2427.0,-179.0,-2.5098039215686274,-203.0,-23.72,61.9,-26.59
2427.05,-36.0,275.4901960784314,-295.0,-3.21,43.49,-4.51
2427.1,27.0,-236.01960784313727,193.50980392156862,1.36,10.87,1.29
2427.15,42.0,-302.01960784313724,209.50980392156862,-5.21,-12.99,0.98
2427.2,11.0,291.4901960784314,193.50980392156862,15.08,-23.91,22.99
2427.25,58.0,-220.01960784313727,193.50980392156862,24.29,-51.6,34.09
2427.3,106.0,-155.01960784313727,-280.0,9.8,-74.77,49.7
2427.35,224.50980392156862,122.98039215686275,-310.0,19.04,-88.77,17.11
2427.4,240.50980392156862,291.4901960784314,-187.0,48.96,-82.57,-3.49
2427.45,-275.0,160.49019607843138,-110.0,59.88,-70.18,15.75
2427.5,224.50980392156862,258.4901960784314,-156.0,53.09,-48.97,15.4
2427.55,256.5098039215686,160.49019607843138,-187.0,26.95,-44.28,-3.84
2427.6,-211.0,-84.50980392156863,-110.0,9.83,-38.37,-12.14
2427.65,-195.0,-18.50980392156863,-156.0,-6.01,-21.99,-13.78
2427.7,-227.0,62.490196078431374,-172.0,-16.41,11.92,-3.32
2427.75,224.50980392156862,-318.01960784313724,301.5098039215686,-4.68,53.08,10.01
2427.8,272.5098039215686,-286.01960784313724,178.50980392156862,-32.33,93.08,-13.99
2427.85,193.50980392156862,-253.01960784313727,209.50980392156862,-59.11,75.48,8.92
2427.9,18.50980392156863,-285.01960784313724,-249.0,-47.84,54.23,5.35
2427.95,208.50980392156862,209.49019607843138,316.5098039215686,-41.43,65.08,-30.37
2428.0,224.50980392156862,-67.50980392156863,-172.0,-33.63,60.92,-57.99
2428.05,-227.0,-133.50980392156862,-203.0,-51.44,49.09,-54.59
2428.1,-116.0,-2.5098039215686274,-233.0,-56.97,38.03,-24.04
2428.15,-68.0,-285.01960784313724,316.5098039215686,-25.51,19.16,7.42
2428.2,-20.0,-187.01960784313727,270.5098039215686,-10.21,-8.65,23.9
2428.25,154.0,275.4901960784314,286.5098039215686,2.59,-13.2,24.88
2428.3,11.0,275.4901960784314,-264.0,2.31,-31.09,31.18
2428.35,138.0,258.4901960784314,-126.0,10.92,-55.17,25.41
2428.4,-52.0,-24.019607843137255,-172.0,23.87,-77.46,33.0
2428.45,193.50980392156862,40.98039215686274,-141.0,45.88,-70.88,-2.23
2428.5,272.5098039215686,307.4901960784314,-126.0,51.17,-58.46,6.96
2428.55,304.5098039215686,193.49019607843138,58.0,52.01,-50.13,15.96
2428.6,272.5098039215686,258.4901960784314,-64.0,50.05,-42.25,10.57
2428.65,-211.0,46.490196078431374,12.0,0.03,-28.04,0.31
2428.7,-211.0,-18.50980392156863,-79.0,-9.55,-18.66,-10.11
2428.75,-195.0,79.49019607843137,-172.0,-14.34,2.26,-18.3
2428.8,-243.0,95.49019607843137,-156.0,-8.85,24.83,-7.76
2428.85,240.50980392156862,-286.01960784313724,-233.0,5.77,56.33,-1.04
2428.9,288.5098039215686,-236.01960784313727,-295.0,-15.25,92.38,-18.75
2428.95,240.50980392156862,-171.01960784313727,-295.0,-30.79,58.64,12.56
2429.0,288.5098039215686,-187.01960784313727,-187.0,-36.01,57.63,3.25
2429.05,304.5098039215686,144.49019607843138,-264.0,-43.99,64.1,-27.15
2429.1,-195.0,-182.50980392156862,-110.0,-44.23,63.19,-47.49
2429.15,-211.0,-35.509803921568626,-264.0,-26.17,50.91,-43.36
2429.2,-131.0,258.4901960784314,-310.0,-3.0,35.51,-18.86
2429.25,-84.0,-187.01960784313727,255.50980392156862,7.0,10.55,-2.3
2429.3,58.0,-269.01960784313724,224.50980392156862,6.19,-11.98,9.13
2429.35,74.0,275.4901960784314,286.5098039215686,-2.13,-17.79,16.59
2429.4,-20.0,-318.01960784313724,316.5098039215686,5.0,-30.74,29.92
2429.45,74.0,-204.01960784313727,-203.0,29.19,-52.4,44.9
2429.5,320.5098039215686,171.98039215686273,-310.0,44.52,-70.22,28.52
2429.55,193.50980392156862,-302.01960784313724,-141.0,47.21,-64.76,2.69
2429.6,224.50980392156862,160.49019607843138,-33.0,47.63,-54.43,13.82
2429.65,224.50980392156862,307.4901960784314,-110.0,30.97,-50.79,26.11
2429.7,-290.0,160.49019607843138,-49.0,11.37,-37.11,13.09
2429.75,-131.0,46.490196078431374,-95.0,-15.64,-30.07,-6.89
2429.8,-52.0,-67.50980392156863,-18.0,-27.75,-23.07,-19.7
2429.85,-131.0,30.49019607843137,-95.0,-28.83,-7.43,-21.8
2429.9,-259.0,144.49019607843138,-156.0,-25.16,11.39,-7.45
2429.95,304.5098039215686,-236.01960784313727,-187.0,-5.84,44.89,7.14
2430.0,320.5098039215686,-220.01960784313727,-264.0,-5.66,75.34,-17.04
2430.05,288.5098039215686,-220.01960784313727,-264.0,-32.33,62.49,-5.84
2430.1,81.50980392156863,-155.01960784313727,-126.0,-38.56,39.81,12.46
2430.15,288.5098039215686,275.4901960784314,-141.0,-29.85,55.67,-5.91
2430.2,208.50980392156862,144.49019607843138,-187.0,-31.42,68.02,-31.6
2430.25,288.5098039215686,79.49019607843137,-203.0,-33.52,55.28,-46.47
2430.3,-179.0,62.490196078431374,-172.0,-18.09,37.08,-34.99
2430.35,-163.0,-286.01960784313724,-249.0,-1.99,17.76,-17.98
2430.4,-36.0,-318.01960784313724,286.5098039215686,-4.93,-4.73,-8.78
2430.45,11.0,291.4901960784314,-249.0,-8.32,-13.59,8.15
2430.5,-20.0,226.49019607843138,-233.0,-20.5,-20.8,11.69
2430.55,-36.0,242.49019607843138,-95.0,1.08,-30.77,20.05
2430.6,-52.0,-138.01960784313727,-156.0,8.05,-52.44,28.38
2430.65,-227.0,187.98039215686273,-110.0,15.47,-72.14,36.5
2430.7,161.50980392156862,-122.01960784313725,-64.0,35.35,-47.54,-1.57
2430.75,129.50980392156862,275.4901960784314,-3.0,16.94,-41.06,-16.62
2430.8,129.50980392156862,144.49019607843138,27.0,4.58,-24.05,-8.01
2430.85,-13.490196078431373,209.49019607843138,-49.0,-37.62,-23.35,-6.92
2430.9,320.5098039215686,-51.509803921568626,181.0,-3.63,-25.7,-13.96
2430.95,256.5098039215686,46.490196078431374,27.0,-33.24,6.91,-20.82
2431.0,-84.0,62.490196078431374,273.0,-55.57,-3.65,-16.9
2431.05,-275.0,95.49019607843137,-292.5098039215686,-85.22,9.47,-0.41
2431.1,65.50980392156863,-285.01960784313724,-64.0,-99.95,-7.88,-2.41
2431.15,-211.0,-236.01960784313727,215.49019607843138,16.31,-1.97,-16.79
2431.2,-188.49019607843138,307.4901960784314,-279.0,39.9,29.35,-24.11
2431.25,304.5098039215686,-18.50980392156863,-138.50980392156862,-64.53,29.17,-22.57
2431.3,27.0,-106.01960784313725,181.0,5.84,43.28,-14.38
2431.35,-306.0,-236.01960784313727,252.01960784313727,42.21,17.76,-11.89
2431.4,161.50980392156862,275.4901960784314,120.0,72.9,9.26,-16.9
2431.45,-140.49019607843138,193.49019607843138,181.0,60.06,5.2,-15.67
2431.5,18.50980392156863,242.49019607843138,-249.0,41.61,-5.29,-15.64
2431.55,256.5098039215686,62.490196078431374,-79.0,16.94,-9.0,-20.05
2431.6,-13.490196078431373,291.4901960784314,-110.0,-12.38,0.75,-8.67
2431.65,49.509803921568626,177.49019607843138,-80.0,12.46,11.74,-0.59
2431.7,161.50980392156862,-286.01960784313724,239.50980392156862,-6.85,23.75,9.1
2431.75,208.50980392156862,258.4901960784314,86.50980392156863,54.81,25.11,-0.1
2431.8,320.5098039215686,79.49019607843137,-233.0,41.23,22.28,5.6
2431.85,129.50980392156862,258.4901960784314,193.50980392156862,16.66,46.46,-15.53
2431.9,97.50980392156863,79.49019607843137,316.5098039215686,179.13,30.75,-88.75
2431.95,256.5098039215686,-116.50980392156863,166.0,147.28,75.3,-131.73
2432.0,193.50980392156862,30.49019607843137,-310.0,291.9,78.66,-220.63
2432.05,152.01960784313727,-40.01960784313726,70.50980392156863,64.36,-7.85,-114.83
2432.1,285.52941176470586,303.5098039215686,-187.0,107.69,-46.28,18.51
2432.15,41.01960784313726,-62.0,193.50980392156862,99.19,-77.08,39.62
2432.2,231.01960784313727,-192.0,193.50980392156862,68.14,-137.38,15.96
2432.25,-188.49019607843138,-258.0,-141.0,124.98,-171.75,3.92
2432.3,-93.49019607843137,19.0,-310.0,133.7,-172.91,1.01
2432.35,-13.490196078431373,101.0,209.50980392156862,169.61,-179.91,37.41
2432.4,18.50980392156863,281.0,224.50980392156862,88.44,-152.92,53.62
2432.45,-124.49019607843137,52.0,-233.0,168.21,-154.57,55.09
2432.5,263.01960784313724,117.0,-64.0,222.18,-130.0,73.43
2432.55,25.019607843137255,-312.5098039215686,-141.0,127.85,-58.14,83.09
2432.6,72.01960784313725,150.0,12.0,59.04,-15.65,81.51
2432.65,168.01960784313727,183.0,43.0,74.34,5.37,64.29
2432.7,247.01960784313727,281.0,-218.0,60.3,-3.33,39.76
2432.75,136.01960784313727,248.0,-3.0,95.76,-23.32,25.09
2432.8,104.01960784313725,-165.50980392156862,-64.0,34.86,-32.84,20.37
2432.85,-149.98039215686273,-263.5098039215686,120.0,11.69,-3.79,15.57
2432.9,-229.98039215686273,-84.50980392156863,27.0,51.24,-11.8,0.49
2432.95,9.019607843137255,-214.50980392156862,-79.0,-9.48,-17.65,-3.81
2433.0,263.01960784313724,-280.5098039215686,58.0,24.57,-11.28,23.94
2433.05,152.01960784313727,291.4901960784314,-3.0,29.89,2.08,53.65
2433.1,247.01960784313727,-51.509803921568626,-18.0,71.61,10.13,64.47
2433.15,152.01960784313727,95.49019607843137,12.0,-19.24,11.43,39.13
2433.2,-188.49019607843138,281.0,12.0,20.75,1.87,23.06
2433.25,-275.0,30.49019607843137,-156.0,19.32,-16.11,-20.5
2433.3,224.50980392156862,52.0,166.0,16.38,-8.76,-12.49
2433.35,-77.49019607843137,-149.50980392156862,-310.0,54.63,-8.02,5.28
2433.4,81.50980392156863,-67.50980392156863,-80.0,109.83,-6.41,-8.15
2433.45,-29.49019607843137,-165.50980392156862,-64.0,103.88,-10.79,-1.36
2433.5,-299.4901960784314,248.0,43.0,-2.62,-23.91,-11.47
2433.55,311.01960784313724,-116.50980392156863,-15.509803921568627,37.94,0.72,5.98
2433.6,-283.4901960784314,-318.01960784313724,-80.0,25.09,-16.91,6.68
2433.65,-267.4901960784314,160.49019607843138,-187.0,16.24,35.79,0.91
2433.7,-236.49019607843138,-182.50980392156862,301.5098039215686,42.31,-1.83,-7.2
2433.75,-315.4901960784314,-149.50980392156862,-310.0,-17.04,-10.26,4.37
2433.8,-283.4901960784314,-133.50980392156862,43.0,-73.42,9.89,5.46
2433.85,72.01960784313725,13.490196078431373,-141.0,-48.01,-20.06,-3.53
2433.9,-70.98039215686275,-35.509803921568626,258.0,-162.22,0.54,49.03
2433.95,-117.98039215686275,62.490196078431374,-76.50980392156863,-280.62,84.51,169.75
2434.0,-54.98039215686274,73.98039215686275,-95.0,-170.58,38.62,29.22
2434.05,-36.0,-122.01960784313725,-126.0,6.86,29.31,-86.83
2434.1,217.0,35.0,-67.49019607843137,56.8,-37.88,-59.07
2434.15,145.50980392156862,-7.490196078431373,27.0,31.15,-65.81,-45.53
2434.2,-267.4901960784314,-78.0,-61.509803921568626,-50.22,-51.25,-34.78
2434.25,-140.49019607843138,-214.50980392156862,212.0,-43.85,-27.66,6.72
2434.3,-188.49019607843138,209.49019607843138,-307.5098039215686,-125.43,-3.79,2.66
2434.35,-108.49019607843137,-111.0,153.49019607843138,-49.94,-13.97,6.54
2434.4,-140.49019607843138,297.0,258.0,-82.35,26.2,26.11
2434.45,295.01960784313724,281.0,304.0,-17.21,23.33,18.34
2434.5,295.01960784313724,297.0,-95.0,-15.71,45.27,24.01
2434.55,-283.4901960784314,-182.50980392156862,-3.0,13.68,43.31,8.33
2434.6,311.01960784313724,-51.509803921568626,-215.50980392156862,-0.59,44.85,6.68
2434.65,311.01960784313724,-100.50980392156863,-79.0,-0.45,53.46,-1.71
2434.7,-299.4901960784314,30.49019607843137,304.0,-9.76,53.92,-4.16
2434.75,311.01960784313724,-67.50980392156863,150.0,23.62,56.75,-41.54
2434.8,-156.49019607843138,150.0,273.0,-22.67,88.95,-38.63
2434.85,88.01960784313725,-149.50980392156862,104.0,-168.62,149.71,-60.3
2434.9,-29.49019607843137,-182.50980392156862,215.49019607843138,-87.6,249.71,-26.07
2434.95,-260.98039215686276,-149.50980392156862,-295.0,-1.18,202.74,-76.12
2435.0,72.01960784313725,-111.0,-76.50980392156863,-11.4,112.02,-103.98
2435.05,-156.49019607843138,-192.0,-76.50980392156863,13.65,45.52,-94.21
2435.1,-29.49019607843137,-176.0,304.0,-18.58,35.37,-70.83
2435.15,-93.49019607843137,-62.0,316.5098039215686,43.29,13.32,-61.24
2435.2,-45.490196078431374,-78.0,-218.0,70.35,-11.31,-46.05
2435.25,129.50980392156862,-160.0,-233.0,20.79,-22.93,-49.69
2435.3,18.50980392156863,-143.0,301.5098039215686,1.4,-32.17,-40.31
2435.35,-124.49019607843137,19.0,286.5098039215686,2.48,-16.0,-62.15
2435.4,-156.49019607843138,-258.0,-295.0,3.15,-8.41,-60.61
2435.45,104.01960784313725,-94.0,193.50980392156862,48.26,21.51,6.51
2435.5,-38.98039215686274,248.0,-298.4901960784314,-61.14,85.66,132.12
2435.55,-315.4901960784314,101.0,206.01960784313727,89.91,127.0,183.57
2435.6,-252.49019607843138,-18.50980392156863,113.01960784313725,8.92,137.57,172.65
2435.65,184.01960784313727,215.0,-175.49019607843138,7.94,114.05,127.47
2435.7,200.01960784313727,297.0,-295.0,26.35,84.23,66.15
2435.75,200.01960784313727,199.0,-218.0,39.02,53.39,-2.62
2435.8,200.01960784313727,35.0,-172.0,-15.85,17.73,-38.35
2435.85,-70.98039215686275,-241.0,-249.0,-10.98,-23.7,-50.78
2435.9,72.01960784313725,221.50980392156862,-233.0,162.33,-20.03,-39.09
2435.95,-38.98039215686274,-78.0,39.509803921568626,2.8,24.13,4.48
2436.0,-236.49019607843138,-176.0,-259.47058823529414,-20.33,13.95,0.17
2436.05,-140.49019607843138,-312.5098039215686,36.01960784313726,13.19,4.18,1.61
2436.1,-204.49019607843138,183.0,-187.0,-96.91,19.06,33.32
2436.15,57.01960784313726,-176.0,39.509803921568626,-50.46,33.06,66.85
2436.2,72.01960784313725,-198.50980392156862,-129.49019607843138,-20.54,37.89,78.78
2436.25,200.01960784313727,-198.50980392156862,86.50980392156863,20.26,33.13,103.95
2436.3,120.01960784313725,291.4901960784314,-252.49019607843138,33.35,23.96,85.47
2436.35,-93.49019607843137,101.0,5.019607843137255,33.07,-52.54,-20.43
2436.4,-27.50980392156863,-301.4901960784314,236.01960784313727,-274.76,-22.83,-236.35
2436.45,274.4901960784314,96.01960784313725,-258.01960784313724,90.26,48.11,-141.18
2436.5,-163.0,144.9607843137255,-92.50980392156863,-124.8,55.88,-81.93
2436.55,226.49019607843138,-313.45098039215685,80.98039215686275,-50.64,-6.9,108.85
2436.6,108.54901960784314,-62.470588235294116,119.0,48.61,-24.89,86.1
2436.65,41.01960784313726,204.98039215686273,-203.0,46.9,-42.46,65.03
2436.7,-315.4901960784314,-73.01960784313725,-187.0,19.98,-55.48,61.28
2436.75,97.50980392156863,13.490196078431373,-295.0,49.1,-82.19,56.59
2436.8,-131.0,-35.509803921568626,316.5098039215686,43.26,-82.99,69.16
2436.85,-131.0,258.4901960784314,-172.0,58.87,-85.65,60.34
2436.9,320.5098039215686,62.490196078431374,316.5098039215686,68.77,-136.4,54.35
2436.95,-68.0,30.49019607843137,43.0,72.48,-113.9,28.21
2437.0,177.50980392156862,166.0,24.50980392156863,30.87,-139.17,18.76
2437.05,208.50980392156862,-18.50980392156863,-49.0,-23.3,-98.15,-0.76
2437.1,65.50980392156863,-182.50980392156862,-141.0,-3.0,-107.91,-2.83
2437.15,-61.490196078431374,291.4901960784314,212.0,-48.43,-56.81,-20.64
2437.2,-45.490196078431374,-182.50980392156862,316.5098039215686,-5.45,-27.45,-47.49
2437.25,-61.490196078431374,-116.50980392156863,-126.0,-21.45,-3.54,-46.72
2437.3,-124.49019607843137,-18.50980392156863,316.5098039215686,26.88,-19.54,-9.09
2437.35,-77.49019607843137,-296.5098039215686,9.509803921568627,29.68,-2.67,-15.78
2437.4,-315.4901960784314,13.490196078431373,-295.0,12.56,-16.91,-27.78
2437.45,311.01960784313724,-51.509803921568626,301.5098039215686,17.15,-7.39,-14.41
2437.5,-283.4901960784314,-2.5098039215686274,147.50980392156862,-3.11,-33.96,-31.63
2437.55,247.01960784313727,139.50980392156862,320.0,-15.67,-29.62,-1.32
2437.6,-13.490196078431373,128.49019607843138,246.49019607843138,28.03,-48.87,-4.37
2437.65,288.5098039215686,242.49019607843138,12.0,26.74,-29.65,-25.72
2437.7,-13.490196078431373,144.49019607843138,227.0,-12.87,-28.22,-27.19
2437.75,-267.4901960784314,-209.0,-156.0,29.78,-33.47,-18.33
2437.8,65.50980392156863,128.49019607843138,-37.490196078431374,70.94,-18.42,-7.38
2437.85,81.50980392156863,-2.5098039215686274,-95.0,59.78,-37.07,-1.92
2437.9,269.52941176470586,199.52941176470588,306.03921568627453,35.07,0.44,9.06
2437.95,-149.98039215686273,-182.50980392156862,150.0,79.03,-24.86,46.13
2438.0,97.50980392156863,-84.50980392156863,-18.0,-59.49,17.83,109.16
2438.05,-252.49019607843138,-155.01960784313727,-49.0,46.79,-14.25,106.5
2438.1,65.50980392156863,128.49019607843138,212.0,43.92,-20.03,4.79
2438.15,-259.0,-45.0,119.0,50.4,-8.79,-90.29
2438.2,34.509803921568626,237.50980392156862,304.0,-45.84,27.91,6.37
2438.25,31.529411764705884,24.980392156862745,86.50980392156863,-78.57,56.75,-19.03
2438.3,304.5098039215686,215.0,286.5098039215686,-20.08,3.69,19.42
2438.35,97.50980392156863,171.98039215686273,-215.50980392156862,-43.46,22.14,18.58
2438.4,-315.4901960784314,-165.50980392156862,-233.0,-9.34,18.25,8.61
2438.45,-252.49019607843138,13.490196078431373,104.0,-6.99,8.56,2.9
2438.5,49.509803921568626,258.4901960784314,-126.0,-6.78,16.89,5.21
2438.55,-140.49019607843138,62.490196078431374,270.5098039215686,-29.95,30.08,0.21
2438.6,-108.49019607843137,-2.5098039215686274,-141.0,-26.52,29.24,-10.18
2438.65,-13.490196078431373,128.49019607843138,-3.0,-23.69,15.42,-13.36
2438.7,49.509803921568626,46.490196078431374,12.0,-12.28,2.61,-9.09
2438.75,-61.490196078431374,144.49019607843138,43.0,-24.88,10.73,-16.58
2438.8,216.01960784313727,-100.50980392156863,12.0,-25.96,35.09,-24.88
2438.85,311.01960784313724,-198.50980392156862,-156.0,-75.45,30.89,-35.1
2438.9,-188.49019607843138,-247.50980392156862,-295.0,-1.85,-1.86,-5.87
2438.95,129.50980392156862,209.49019607843138,27.0,-46.86,0.16,-2.55
2439.0,-156.49019607843138,128.49019607843138,196.0,21.24,-25.21,16.13
2439.05,-140.49019607843138,-35.509803921568626,181.0,-43.67,-2.7,0.94
2439.1,216.01960784313727,3.0,-64.0,29.85,19.86,-19.03
2439.15,168.01960784313727,35.0,178.50980392156862,-17.14,14.19,-19.03
2439.2,113.50980392156863,-62.0,286.5098039215686,76.96,-24.58,9.62
2439.25,-116.0,291.4901960784314,209.50980392156862,80.95,-8.58,-13.08
2439.3,-195.0,-165.50980392156862,196.0,189.45,-78.02,118.33
2439.35,-13.490196078431373,-182.50980392156862,-249.0,-61.98,103.65,-94.56
2439.4,-144.90196078431373,-290.52941176470586,25.54901960784314,113.61,-28.88,77.14
2439.45,-20.0,-73.01960784313725,178.50980392156862,53.72,-29.9,10.53
2439.5,247.01960784313727,-132.98039215686273,236.01960784313727,274.57,172.29,-44.41
2439.55,152.01960784313727,248.0,309.52941176470586,-120.29,14.05,-64.88
2439.6,-179.0,286.5098039215686,292.4901960784314,-49.38,7.3,-105.62
2439.65,-100.0,297.0,153.49019607843138,171.57,-7.25,-97.54
2439.7,161.50980392156862,-204.01960784313727,-49.0,-12.03,-74.59,-78.88
2439.75,311.01960784313724,-133.50980392156862,-15.509803921568627,-306.21,74.25,259.59
2439.8,-86.98039215686275,-302.01960784313724,-273.01960784313724,-154.34,-12.33,8.57
2439.85,88.01960784313725,258.4901960784314,-233.0,-7.73,13.49,14.35
2439.9,272.5098039215686,-73.01960784313725,178.50980392156862,-19.49,-29.65,-16.23
2439.95,88.01960784313725,-241.0,-276.5098039215686,-27.19,-20.41,5.28
2440.0,113.50980392156863,-35.509803921568626,196.0,-72.13,19.69,2.34
2440.05,-101.98039215686275,-143.0,-15.509803921568627,16.69,-34.8,48.89
2440.1,-61.490196078431374,8.980392156862745,166.0,38.08,-29.93,-24.07
2440.15,49.509803921568626,52.0,-292.5098039215686,3.53,-39.52,-64.67
2440.2,-13.490196078431373,150.0,304.0,23.2,-7.43,-116.51
2440.25,-93.49019607843137,-165.50980392156862,-156.0,20.33,60.43,21.28
2440.3,72.01960784313725,101.0,-246.50980392156862,-18.96,-20.41,15.19
2440.35,154.0,-203.49019607843138,-150.01960784313727,60.37,16.36,29.92
2440.4,-243.0,-296.5098039215686,70.50980392156863,23.24,26.83,13.09
2440.45,49.509803921568626,264.0,-276.5098039215686,34.96,26.72,16.87
2440.5,-188.49019607843138,-35.509803921568626,43.0,49.87,15.38,17.32
2440.55,-315.4901960784314,264.0,-230.50980392156862,-3.11,14.33,33.32
2440.6,279.01960784313724,248.0,212.0,-13.19,18.11,17.6
2440.65,279.01960784313724,-231.50980392156862,73.0,11.27,22.0,23.66
2440.7,216.01960784313727,209.49019607843138,-18.0,-3.35,28.51,25.51
2440.75,-236.49019607843138,-182.50980392156862,73.0,-21.03,25.39,22.33
2440.8,-315.4901960784314,-182.50980392156862,135.0,-17.18,29.17,16.48
2440.85,-299.4901960784314,-280.5098039215686,104.0,-31.53,24.55,12.95
2440.9,-299.4901960784314,-231.50980392156862,104.0,-52.28,18.88,4.93
2440.95,-77.49019607843137,-214.50980392156862,181.0,-12.7,50.0,5.53
2441.0,-29.49019607843137,-35.509803921568626,-279.0,-61.7,29.49,14.94
2441.05,72.01960784313725,-231.50980392156862,212.0,-24.39,13.53,-17.63
2441.1,-108.49019607843137,-100.50980392156863,-49.0,18.97,-10.23,-22.78
2441.15,-188.49019607843138,13.490196078431373,-249.0,-2.72,-22.2,-24.7
2441.2,216.01960784313727,-214.50980392156862,104.0,-11.58,-13.73,-20.5
2441.25,295.01960784313724,-84.50980392156863,-64.0,14.63,-43.06,-17.21
2441.3,-156.49019607843138,111.49019607843137,73.0,5.42,-40.71,-27.85
2441.35,-61.490196078431374,297.0,135.0,-30.3,-48.59,-25.3
2441.4,247.01960784313727,166.0,-184.50980392156862,0.52,-87.09,-41.5
2441.45,-61.490196078431374,199.0,166.0,20.23,-107.88,-48.54
2441.5,-61.490196078431374,46.490196078431374,-184.50980392156862,52.6,-130.35,-59.11
2441.55,-45.490196078431374,52.0,-215.50980392156862,-16.41,-156.67,-84.76
2441.6,-93.49019607843137,-13.0,292.4901960784314,-7.27,-120.34,-76.78
2441.65,-252.49019607843138,-214.50980392156862,89.0,-19.98,-35.11,20.54
2441.7,210.05882352941177,57.98039215686274,106.03921568627452,83.82,0.96,4.09
2441.75,311.01960784313724,-176.0,-12.019607843137255,98.94,10.76,21.14
2441.8,184.01960784313727,-197.98039215686273,218.98039215686273,-92.11,85.52,-55.57
2441.85,-70.98039215686275,237.50980392156862,-21.49019607843137,-111.12,139.35,-31.91
2441.9,41.01960784313726,-241.0,70.50980392156863,105.63,202.81,-18.61
2441.95,-133.98039215686273,-198.50980392156862,-249.0,-326.75,197.73,-17.6
2442.0,-133.98039215686273,19.0,43.0,318.92,105.47,-51.02
2442.05,104.01960784313725,-296.5098039215686,-307.5098039215686,242.86,50.31,-39.05
2442.1,136.01960784313727,-182.50980392156862,-261.5098039215686,118.19,20.56,-59.46
2442.15,263.01960784313724,-247.50980392156862,-107.50980392156863,-31.39,14.96,-60.16
2442.2,-275.0,-209.0,-95.0,-64.78,-14.25,-64.39
2442.25,-45.490196078431374,-133.50980392156862,-230.50980392156862,-39.26,-47.08,-70.2
2442.3,-213.98039215686273,242.49019607843138,255.50980392156862,-43.39,-48.27,-54.94
2442.35,-211.0,-236.49019607843138,120.0,-62.75,-35.78,-52.95
2442.4,224.50980392156862,205.50980392156862,-280.0,-25.3,-49.92,-46.3
2442.45,-32.470588235294116,79.49019607843137,-95.0,-50.39,3.59,-10.18
2442.5,216.01960784313727,-317.4901960784314,209.50980392156862,-32.51,27.0,26.46
2442.55,-45.490196078431374,-209.0,239.50980392156862,-39.72,44.71,48.72
2442.6,-254.47058823529412,-263.5098039215686,-33.0,-84.06,101.55,110.18
2442.65,-213.98039215686273,-241.0,239.50980392156862,-155.29,128.26,183.57
2442.7,-204.49019607843138,-143.0,-175.49019607843138,4.83,-23.07,208.32
2442.75,-181.98039215686273,128.49019607843138,-122.50980392156863,-26.49,-82.85,211.15
2442.8,295.01960784313724,297.0,227.0,-25.19,-100.11,172.55
2442.85,297.0,25.50980392156863,-279.0,-2.97,-96.89,99.47
2442.9,-108.49019607843137,307.4901960784314,-218.0,106.36,-117.89,47.39
2442.95,-204.49019607843138,264.0,-126.0,-0.94,-58.81,38.25
2443.0,-147.0,107.50980392156863,-67.49019607843137,28.14,-69.48,10.25
2443.05,57.01960784313726,-269.01960784313724,-3.0,44.52,-66.09,10.43
2443.1,126.52941176470588,-89.01960784313725,58.0,71.85,-75.01,1.68
2443.15,-259.0,-78.0,286.5098039215686,63.7,-40.43,-19.14
2443.2,-220.49019607843138,-312.5098039215686,224.50980392156862,27.47,-38.02,15.5
2443.25,-133.98039215686273,313.0,-64.0,44.66,-43.48,18.51
2443.3,81.50980392156863,-182.50980392156862,-33.0,123.37,-102.45,-15.78
2443.35,256.5098039215686,-2.5098039215686274,12.0,110.84,-109.42,11.86
2443.4,154.0,134.47058823529412,-276.5098039215686,-5.21,-55.41,15.36
2443.45,263.01960784313724,-247.50980392156862,-246.50980392156862,0.17,-33.22,40.77
2443.5,-195.0,-269.01960784313724,258.0,-2.55,-36.09,34.4
2443.55,272.5098039215686,275.4901960784314,-215.50980392156862,-9.51,-35.04,24.92
2443.6,-156.49019607843138,62.490196078431374,-215.50980392156862,-48.61,-32.31,14.91
2443.65,97.50980392156863,226.49019607843138,-261.5098039215686,-30.27,-39.94,9.87
2443.7,256.5098039215686,307.4901960784314,-187.0,-11.79,-49.57,-4.68
2443.75,-172.49019607843138,95.49019607843137,-172.0,2.55,-63.08,-21.97
2443.8,138.0,-160.0,-36.490196078431374,27.54,-52.3,-25.47
2443.85,-13.490196078431373,128.49019607843138,104.0,-186.96,79.96,73.11
2443.9,-85.43137254901961,106.03921568627452,138.49019607843138,62.65,-16.95,-52.21
2443.95,-313.5098039215686,-236.01960784313727,286.5098039215686,38.01,-5.92,-56.38
2444.0,-306.0,-149.50980392156862,-95.0,40.88,18.39,-60.3
2444.05,47.529411764705884,-192.52941176470588,196.0,51.52,-25.66,-82.94
2444.1,-117.98039215686275,-35.509803921568626,104.0,-0.55,3.2,-39.54
2444.15,216.01960784313727,-29.0,-80.0,27.47,36.17,-81.3
2444.2,-64.47058823529412,-40.01960784313726,58.0,47.0,17.13,-133.34
2444.25,301.52941176470586,-214.50980392156862,-110.0,99.01,-2.74,-160.33
2444.3,-116.0,-165.50980392156862,163.50980392156862,57.5,30.05,-110.28
2444.35,120.01960784313725,-12.529411764705882,209.50980392156862,101.15,67.22,-48.96
2444.4,-108.49019607843137,-220.01960784313727,286.5098039215686,96.42,92.45,-14.76
2444.45,-170.50980392156862,-29.0,316.5098039215686,108.22,86.89,15.92
2444.5,-220.49019607843138,40.98039215686274,-64.0,91.07,72.19,49.24
2444.55,72.01960784313725,13.490196078431373,-18.0,111.12,64.52,61.67
2444.6,74.0,319.5098039215686,316.5098039215686,118.51,48.35,81.23
2444.65,-315.4901960784314,-318.01960784313724,-79.0,112.56,41.77,79.8
2444.7,-38.98039215686274,-51.509803921568626,-126.0,120.15,27.49,94.25
2444.75,90.0,205.50980392156862,178.50980392156862,123.72,16.54,107.59
2444.8,-188.49019607843138,144.49019607843138,301.5098039215686,125.54,5.23,124.25
2444.85,-108.49019607843137,-182.50980392156862,209.50980392156862,135.66,-4.98,129.29
2444.9,18.50980392156863,-280.5098039215686,193.50980392156862,156.94,-7.81,130.02
2444.95,-13.490196078431373,-198.50980392156862,86.50980392156863,135.2,7.58,137.9
2445.0,-156.49019607843138,-182.50980392156862,-52.490196078431374,142.9,-9.63,124.04
2445.05,-156.49019607843138,-116.50980392156863,-6.490196078431373,101.22,-1.16,133.84
2445.1,-93.49019607843137,-231.50980392156862,-98.49019607843137,157.08,-9.35,139.37
2445.15,97.50980392156863,-67.50980392156863,-37.490196078431374,155.96,-6.27,131.11
2445.2,81.50980392156863,-198.50980392156862,-144.49019607843138,147.38,11.99,118.4
2445.25,-29.49019607843137,-247.50980392156862,-113.49019607843137,113.05,21.37,101.39
2445.3,34.509803921568626,117.0,-144.49019607843138,96.14,17.83,90.58
2445.35,272.5098039215686,254.50980392156862,-190.49019607843138,77.91,11.81,77.14
2445.4,-313.5098039215686,9.509803921568627,-236.49019607843138,36.96,10.52,60.9
2445.45,65.50980392156863,-231.50980392156862,-129.49019607843138,27.86,8.17,48.02
2445.5,-54.98039215686274,-286.01960784313724,39.509803921568626,8.54,4.53,34.75
2445.55,247.01960784313727,101.0,-21.49019607843137,3.11,-0.32,19.84
2445.6,-116.0,-252.49019607843138,282.01960784313724,-47.84,-22.69,-10.88
2445.65,-154.50980392156862,210.01960784313727,221.01960784313727,-29.39,-20.97,3.95
2445.7,-243.0,-94.0,282.01960784313724,-19.31,-23.67,8.43
2445.75,-315.4901960784314,242.49019607843138,-113.49019607843137,-60.93,-20.59,-6.78
2445.8,-213.98039215686273,160.49019607843138,132.50980392156862,-60.26,-25.84,-14.9
2445.85,-220.49019607843138,-143.0,-129.49019607843138,-104.57,-22.06,-20.47
2445.9,186.0,145.01960784313727,-267.4901960784314,-53.02,-33.29,-23.27
2445.95,-282.5098039215686,25.50980392156863,-283.4901960784314,-92.85,-39.0,-22.29
2446.0,129.50980392156862,-312.5098039215686,-52.490196078431374,-24.84,-41.59,-15.08
2446.05,-54.98039215686274,57.98039215686274,55.509803921568626,-32.16,-35.08,-7.97
2446.1,25.019607843137255,-35.509803921568626,-98.49019607843137,-34.4,-33.19,-7.52
2446.15,-275.0,270.5098039215686,-283.4901960784314,-10.98,-59.51,-30.3
2446.2,-218.50980392156862,9.509803921568627,-252.49019607843138,15.33,-60.8,-20.61
2446.25,129.50980392156862,-214.50980392156862,-160.49019607843138,64.54,-53.31,-18.58
2446.3,-260.98039215686276,285.98039215686276,224.50980392156862,59.11,-44.84,-10.63
2446.35,253.52941176470588,-220.01960784313727,301.5098039215686,45.64,-26.61,5.6
2446.4,256.5098039215686,-13.0,86.50980392156863,36.43,-14.78,5.07
2446.45,311.01960784313724,-51.509803921568626,286.5098039215686,-27.78,-9.07,-6.33
2446.5,279.01960784313724,232.0,316.5098039215686,-49.2,-6.59,-15.08
2446.55,279.01960784313724,150.0,-203.0,-94.42,-6.24,-23.69
2446.6,-283.4901960784314,68.0,-203.0,-140.03,1.42,-36.92
2446.65,-220.49019607843138,3.0,-295.0,-166.21,-5.89,-42.48
2446.7,-315.4901960784314,101.0,286.5098039215686,-134.67,-17.09,-41.75
2446.75,145.50980392156862,199.0,316.5098039215686,-114.13,-18.24,-49.69
2446.8,208.50980392156862,68.0,316.5098039215686,-105.27,-16.98,-57.67
2446.85,49.509803921568626,232.0,-310.0,-48.4,-22.06,-59.39
2446.9,-29.49019607843137,68.0,-249.0,-40.49,-18.87,-53.02
2446.95,-172.49019607843138,199.0,-233.0,-55.85,-6.69,-35.1
2447.0,-252.49019607843138,101.0,-310.0,-33.21,-3.65,-24.7
2447.05,-315.4901960784314,199.0,-264.0,-110.7,13.56,-18.05
2447.1,9.019607843137255,-62.0,-141.0,-179.16,13.56,10.11
2447.15,104.01960784313725,68.0,-110.0,-166.35,35.33,8.08
2447.2,57.01960784313726,52.0,-110.0,-153.89,22.49,13.96
2447.25,-229.98039215686273,139.50980392156862,301.5098039215686,-151.4,1.56,32.93
2447.3,120.01960784313725,-280.5098039215686,-33.0,-103.59,11.57,15.75
2447.35,-22.980392156862745,199.0,9.509803921568627,-50.71,-76.52,38.6
2447.4,57.01960784313726,-198.50980392156862,73.0,58.2,-85.72,42.52
2447.45,72.01960784313725,-171.01960784313727,-36.490196078431374,-3.67,-33.85,-6.47
2447.5,-283.4901960784314,52.0,135.0,7.87,-0.36,1.82
2447.55,216.01960784313727,264.0,-141.0,11.69,10.2,-5.84
2447.6,279.01960784313724,166.0,-156.0,1.57,24.62,-18.68
2447.65,295.01960784313724,166.0,-126.0,7.17,27.46,-19.28
2447.7,311.01960784313724,313.0,-126.0,10.43,37.47,-27.85
2447.75,-252.49019607843138,101.0,-172.0,5.35,37.05,-22.08
2447.8,311.01960784313724,133.0,-80.0,13.82,44.64,-32.12
2447.85,-283.4901960784314,52.0,239.50980392156862,23.27,39.15,-30.83
2447.9,-299.4901960784314,199.0,-3.0,-17.25,34.14,-12.77
2447.95,231.01960784313727,-13.0,12.0,-29.29,22.91,-8.11
2448.0,311.01960784313724,150.0,-233.0,-33.7,33.72,-12.45
2448.05,311.01960784313724,117.0,-249.0,-36.57,25.95,-21.97
2448.1,-220.49019607843138,183.0,-141.0,-58.51,45.2,-27.54
2448.15,104.01960784313725,166.0,209.50980392156862,-13.43,22.49,-10.49
2448.2,311.01960784313724,-312.5098039215686,-3.0,16.9,6.32,-16.27
2448.25,-283.4901960784314,183.0,-156.0,16.66,0.05,-11.47
2448.3,-267.4901960784314,166.0,-249.0,-16.48,-13.03,7.8
2448.35,-220.49019607843138,-45.0,-3.0,2.48,-19.5,-3.0
2448.4,216.01960784313727,183.0,286.5098039215686,0.59,-8.79,-8.18
2448.45,-315.4901960784314,68.0,-233.0,-9.9,4.57,-6.85
2448.5,279.01960784313724,-45.0,-233.0,-11.96,0.3,-3.21
2448.55,263.01960784313724,215.0,-64.0,-11.12,-3.61,-4.26
2448.6,263.01960784313724,19.0,-264.0,0.28,-11.17,-13.05
2448.65,216.01960784313727,68.0,270.5098039215686,-2.97,-13.41,-3.7
2448.7,216.01960784313727,68.0,-310.0,15.64,-3.19,-9.3
2448.75,-315.4901960784314,150.0,-264.0,47.63,-0.32,-29.15
2448.8,-172.49019607843138,248.0,-295.0,19.77,-9.32,-3.63
2448.85,295.01960784313724,-94.0,-126.0,-12.17,-13.24,8.78
2448.9,120.01960784313725,68.0,-126.0,2.06,-6.13,10.01
2448.95,9.019607843137255,-13.0,-218.0,-26.24,-1.2,11.16
2449.0,41.01960784313726,19.0,-233.0,-19.63,-6.2,3.36
2449.05,72.01960784313725,183.0,-310.0,-52.35,-2.39,14.7
2449.1,9.019607843137255,-62.0,-172.0,-9.51,-8.2,6.23
2449.15,-22.980392156862745,183.0,-129.49019607843138,-21.59,-7.88,16.1
2449.2,136.01960784313727,101.0,-80.0,-9.83,-13.97,12.25
2449.25,168.01960784313727,101.0,-295.0,-24.81,-22.79,21.84
2449.3,200.01960784313727,52.0,-233.0,-5.45,-17.3,21.42
2449.35,9.019607843137255,-111.0,9.509803921568627,-13.64,-16.67,29.96
2449.4,295.01960784313724,-78.0,-280.0,-21.83,-17.96,30.13
2449.45,-283.4901960784314,133.0,-264.0,-5.31,-8.09,18.37
2449.5,-140.49019607843138,183.0,-64.0,-10.7,-8.51,24.57
2449.55,-124.49019607843137,-29.0,-156.0,-8.5,3.87,13.54
2449.6,-13.490196078431373,183.0,27.0,-19.49,-5.08,20.58
2449.65,-108.49019607843137,101.0,12.0,-23.02,-9.42,28.21
2449.7,177.50980392156862,215.0,-141.0,5.46,-15.27,11.44
2449.75,2.5098039215686274,183.0,-33.0,7.24,1.94,-7.59
2449.8,-188.49019607843138,133.0,-95.0,11.72,0.86,-8.57
2449.85,-315.4901960784314,68.0,-3.0,5.91,9.92,-12.73
2449.9,-61.490196078431374,150.0,-110.0,41.54,-0.43,-21.69
2449.95,-93.49019607843137,281.0,286.5098039215686,16.94,-3.33,-12.28
2450.0,-45.490196078431374,-45.0,-64.0,29.29,5.23,-25.05
2450.05,-204.49019607843138,101.0,-95.0,32.79,-4.03,-16.06
2450.1,311.01960784313724,101.0,-187.0,3.67,4.85,-14.52
2450.15,18.50980392156863,166.0,-18.0,21.07,-1.16,-19.59
2450.2,247.01960784313727,-280.5098039215686,286.5098039215686,14.35,-5.29,-12.94
2450.25,-6.980392156862745,-78.0,-233.0,17.67,0.68,-15.57
2450.3,231.01960784313727,84.0,-95.0,14.28,-1.48,-16.86
2450.35,88.01960784313725,183.0,-172.0,21.1,11.46,-12.38
2450.4,216.01960784313727,150.0,-49.0,21.07,5.86,-8.85
2450.45,216.01960784313727,52.0,316.5098039215686,86.8,-18.35,-19.42
2450.5,-276.98039215686276,-133.50980392156862,-279.0,-111.47,-57.48,-29.74
2450.55,-88.41176470588235,-57.01960784313726,9.549019607843137,3.5,30.96,2.9
2450.6,4.490196078431373,-160.52941176470588,203.98039215686273,14.38,-14.39,22.99
2450.65,-186.50980392156862,199.0,32.529411764705884,15.15,10.1,1.68
2450.7,168.01960784313727,13.490196078431373,-187.0,-12.84,4.67,6.37
2450.75,72.01960784313725,150.0,270.5098039215686,0.73,3.2,3.29
2450.8,152.01960784313727,-29.0,-279.0,-12.45,2.29,5.95
2450.85,120.01960784313725,3.0,-141.0,-22.18,-4.03,13.61
2450.9,263.01960784313724,19.0,-141.0,-28.13,-4.38,16.59
2450.95,-299.4901960784314,52.0,-79.0,-20.82,-13.94,22.61
2451.0,311.01960784313724,19.0,255.50980392156862,-12.03,-7.85,20.65
2451.05,279.01960784313724,248.0,-64.0,-9.06,-7.64,27.12
2451.1,-315.4901960784314,35.0,-95.0,-26.8,-6.38,29.33
2451.15,-188.49019607843138,166.0,-95.0,-18.12,1.31,21.66
2451.2,-77.49019607843137,264.0,-95.0,-19.35,-7.01,22.12
2451.25,-29.49019607843137,68.0,-203.0,-18.16,-5.61,14.52
2451.3,161.50980392156862,84.0,-33.0,-17.53,0.54,6.82
2451.35,129.50980392156862,248.0,120.0,1.92,0.23,-3.95
2451.4,113.50980392156863,199.0,-3.0,2.97,12.13,-13.99
2451.45,-108.49019607843137,297.0,-218.0,16.03,4.18,-17.28
2451.5,311.01960784313724,264.0,-233.0,14.63,5.41,-21.62
2451.55,-124.49019607843137,150.0,-3.0,13.79,8.0,-26.21
2451.6,-124.49019607843137,101.0,-33.0,11.93,-2.53,-9.34
2451.65,-124.49019607843137,101.0,-187.0,14.84,13.53,-19.56
2451.7,216.01960784313727,297.0,-110.0,12.39,11.46,-9.37
2451.75,2.5098039215686274,117.0,-172.0,16.83,8.17,-15.39
2451.8,-236.49019607843138,133.0,316.5098039215686,7.59,1.66,-5.31
2451.85,-299.4901960784314,-29.0,-203.0,19.56,-13.2,-19.59
2451.9,88.01960784313725,68.0,239.50980392156862,14.56,-0.71,-15.32
2451.95,184.01960784313727,166.0,-49.0,4.55,-5.68,-2.58
2452.0,263.01960784313724,84.0,-233.0,17.29,2.05,-11.51
2452.05,295.01960784313724,166.0,-95.0,14.24,11.46,-12.73
2452.1,247.01960784313727,84.0,-187.0,86.24,18.01,-2.27
2452.15,-38.98039215686274,3.0,178.50980392156862,-26.1,-7.74,-0.24
2452.2,-289.45098039215685,297.52941176470586,104.0,14.56,22.0,-30.65
2452.25,301.52941176470586,117.0,15.490196078431373,-9.55,-5.96,10.08
2452.3,279.01960784313724,-209.0,73.0,16.62,13.77,-4.86
2452.35,41.01960784313726,111.49019607843137,-126.0,10.6,8.59,3.22
2452.4,231.01960784313727,-290.0,255.50980392156862,-5.8,0.37,8.33
2452.45,104.01960784313725,52.0,316.5098039215686,-20.99,-4.28,14.8
2452.5,152.01960784313727,-78.0,193.50980392156862,-21.06,-10.79,22.47
2452.55,231.01960784313727,183.0,-172.0,-24.56,-16.49,31.43
2452.6,-220.49019607843138,101.0,-156.0,-13.89,-16.28,30.03
2452.65,-315.4901960784314,183.0,-95.0,-23.62,-18.66,38.46
2452.7,-283.4901960784314,117.0,-203.0,-12.52,-12.68,34.37
2452.75,-267.4901960784314,183.0,-64.0,-12.91,-11.98,29.99
2452.8,-108.49019607843137,3.0,-141.0,-17.07,-16.63,31.18
2452.85,-29.49019607843137,117.0,-80.0,-18.33,-8.09,23.59
2452.9,145.50980392156862,133.0,-18.0,-8.57,0.58,7.21
2452.95,240.50980392156862,101.0,27.0,-12.07,5.09,-3.91
2453.0,18.50980392156863,313.0,-110.0,14.84,10.13,-15.25
2453.05,-140.49019607843138,101.0,73.0,3.04,17.83,-17.0
2453.1,-93.49019607843137,101.0,-33.0,16.55,7.23,-21.52
2453.15,-283.4901960784314,313.0,270.5098039215686,14.84,11.15,-25.44
2453.2,-93.49019607843137,199.0,12.0,17.22,-6.1,-12.24
2453.25,49.509803921568626,52.0,-49.0,16.69,11.15,-26.07
2453.3,-45.490196078431374,133.0,43.0,15.26,4.92,-18.47
2453.35,-156.49019607843138,199.0,-310.0,18.58,0.68,-11.09
2453.4,231.01960784313727,84.0,-279.0,10.81,-0.99,-9.62
2453.45,200.01960784313727,84.0,-141.0,18.23,-3.02,-13.47
2453.5,-188.49019607843138,199.0,-79.0,17.71,-1.16,-14.2
2453.55,-172.49019607843138,-29.0,-233.0,19.49,7.82,-20.57
2453.6,231.01960784313727,232.0,-18.0,3.22,-1.09,-6.05
2453.65,-22.980392156862745,-111.0,316.5098039215686,8.64,12.27,-15.39
2453.7,-38.98039215686274,215.0,-172.0,-1.39,10.27,-12.7
2453.75,-38.98039215686274,-13.0,193.50980392156862,-62.96,-51.28,18.37
2453.8,-215.9607843137255,199.0,201.52941176470588,80.29,76.07,-22.04
2453.85,320.5098039215686,-51.509803921568626,-242.01960784313727,14.1,-0.71,15.43
2453.9,-195.0,313.0,-21.49019607843137,19.7,4.39,3.88
2453.95,-101.98039215686275,-100.50980392156863,-49.0,-20.36,0.75,13.54
2454.0,-38.98039215686274,-13.0,-279.0,0.07,0.19,5.07
2454.05,231.01960784313727,68.0,-264.0,-20.92,-2.18,19.04
2454.1,216.01960784313727,3.0,-187.0,-18.61,-4.03,19.91
2454.15,-299.4901960784314,199.0,-156.0,-10.07,-16.84,27.33
2454.2,-283.4901960784314,68.0,-218.0,-24.42,-12.05,28.77
2454.25,-283.4901960784314,101.0,-141.0,-23.3,-17.96,33.63
2454.3,-188.49019607843138,166.0,-156.0,-23.62,-10.93,31.81
2454.35,-204.49019607843138,133.0,-49.0,-19.21,-16.0,32.2
2454.4,-108.49019607843137,133.0,-64.0,-4.86,-22.62,30.87
2454.45,97.50980392156863,150.0,-18.0,-14.9,-14.01,17.99
2454.5,145.50980392156862,117.0,-64.0,-10.46,0.3,6.82
2454.55,-29.49019607843137,-296.5098039215686,-33.0,-10.88,5.06,-2.09
2454.6,-61.490196078431374,199.0,43.0,18.16,16.05,-24.53
2454.65,-220.49019607843138,-280.5098039215686,58.0,-2.16,19.23,-23.9
2454.7,-124.49019607843137,166.0,43.0,14.1,15.45,-25.51
2454.75,65.50980392156863,133.0,-141.0,28.1,10.45,-29.29
2454.8,-124.49019607843137,166.0,-187.0,4.09,9.92,-24.28
2454.85,-252.49019607843138,133.0,-95.0,28.45,10.38,-34.61
2454.9,-45.490196078431374,215.0,-295.0,26.42,7.05,-26.42
2454.95,-236.49019607843138,199.0,-203.0,10.29,4.71,-13.64
2455.0,263.01960784313724,68.0,-218.0,28.87,2.01,-14.73
2455.05,136.01960784313727,35.0,-218.0,11.3,1.24,-12.35
2455.1,263.01960784313724,-78.0,-279.0,23.06,6.35,-12.73
2455.15,168.01960784313727,297.0,-126.0,0.52,0.26,-8.53
2455.2,295.01960784313724,-29.0,-233.0,15.75,16.75,-20.05
2455.25,-165.98039215686273,183.0,-310.0,32.76,-1.93,-14.52
2455.3,-86.98039215686275,-160.0,-218.0,30.06,-3.79,1.43
2455.35,-197.98039215686273,183.0,-295.0,-109.82,-27.24,18.55
2455.4,-41.96078431372549,139.50980392156862,-196.01960784313727,-6.64,34.32,-15.92
2455.45,231.01960784313727,-209.0,-76.50980392156863,-31.74,-5.33,20.61
2455.5,279.01960784313724,254.50980392156862,-67.49019607843137,-6.26,6.53,4.9
2455.55,-197.98039215686273,79.49019607843137,-156.0,1.08,-2.91,5.28
2455.6,41.01960784313726,-143.0,-218.0,-31.04,3.2,18.93
2455.65,25.019607843137255,35.0,-95.0,2.1,-8.62,11.16
2455.7,263.01960784313724,101.0,301.5098039215686,-25.05,-9.88,29.33
2455.75,247.01960784313727,-45.0,-18.0,-17.84,-15.83,27.3
2455.8,-299.4901960784314,35.0,-310.0,-21.55,-19.89,34.58
2455.85,-188.49019607843138,133.0,-64.0,-27.57,-17.44,40.18
2455.9,-172.49019607843138,199.0,-156.0,-26.77,-12.89,39.06
2455.95,-77.49019607843137,150.0,-18.0,-21.2,-19.19,38.15
2456.0,81.50980392156863,19.0,-264.0,-16.41,-16.98,31.81
2456.05,177.50980392156862,150.0,-33.0,-8.57,-0.11,15.47
2456.1,145.50980392156862,117.0,43.0,-3.25,15.56,-8.81
2456.15,-13.490196078431373,297.0,73.0,19.53,12.3,-18.61
2456.2,-188.49019607843138,297.0,-49.0,5.95,18.95,-22.43
2456.25,-124.49019607843137,297.0,43.0,24.95,12.02,-26.63
2456.3,-45.490196078431374,248.0,-295.0,1.96,17.8,-29.57
2456.35,-140.49019607843138,248.0,-95.0,27.96,-0.85,-22.43
2456.4,81.50980392156863,84.0,-141.0,8.64,0.26,-23.02
2456.45,-93.49019607843137,-29.0,43.0,21.14,10.83,-21.03
2456.5,-267.4901960784314,-312.5098039215686,-33.0,4.58,-4.07,-11.79
2456.55,311.01960784313724,281.0,301.5098039215686,22.5,1.49,-13.4
2456.6,184.01960784313727,248.0,-64.0,22.4,1.0,-19.98
2456.65,-299.4901960784314,19.0,-172.0,9.03,4.64,-11.93
2456.7,-252.49019607843138,52.0,-264.0,25.37,3.41,-22.81
2456.75,231.01960784313727,232.0,-172.0,17.92,1.24,-10.53
2456.8,-86.98039215686275,35.0,316.5098039215686,-0.52,5.27,-16.23
2456.85,25.019607843137255,52.0,-187.0,70.35,-31.26,-14.59
2456.9,79.52941176470588,-116.50980392156863,239.50980392156862,-49.06,20.14,20.19
2456.95,60.549019607843135,-187.01960784313727,209.50980392156862,40.91,36.14,-11.61
2457.0,42.0,13.490196078431373,77.49019607843137,-12.91,-5.33,19.07
2457.05,34.509803921568626,303.5098039215686,-160.49019607843138,19.32,9.47,-3.04
2457.1,152.01960784313727,79.49019607843137,73.0,-12.07,4.11,8.64
2457.15,136.01960784313727,-111.0,-310.0,5.98,1.94,6.86
2457.2,-86.98039215686275,117.0,-249.0,-21.59,-1.23,13.54
2457.25,136.01960784313727,-62.0,-264.0,-23.02,-6.03,21.84
2457.3,295.01960784313724,3.0,-295.0,-16.69,-13.48,27.23
2457.35,-220.49019607843138,150.0,-187.0,-6.19,-14.5,27.3
2457.4,311.01960784313724,117.0,-203.0,-23.23,-19.36,43.12
2457.45,311.01960784313724,35.0,-110.0,-37.55,-7.36,40.67
2457.5,-45.490196078431374,84.0,27.0,-26.38,-9.7,36.26
2457.55,65.50980392156863,248.0,-264.0,-36.71,-18.7,42.56
2457.6,34.509803921568626,117.0,-172.0,-36.57,-13.24,34.16
2457.65,97.50980392156863,68.0,-18.0,-7.55,-10.79,14.87
2457.7,129.50980392156862,248.0,58.0,7.77,-5.71,-1.01
2457.75,-124.49019607843137,313.0,166.0,7.17,-1.93,-6.54
2457.8,231.01960784313727,-149.50980392156862,27.0,13.23,5.51,-9.51
2457.85,-299.4901960784314,-214.50980392156862,-49.0,-5.94,12.2,-15.99
2457.9,-299.4901960784314,133.0,-79.0,7.45,27.04,-28.8
2457.95,-140.49019607843138,248.0,-33.0,36.64,26.55,-37.16
2458.0,-172.49019607843138,281.0,-110.0,21.1,30.57,-44.3
2458.05,-61.490196078431374,264.0,58.0,31.18,24.59,-35.03
2458.1,-77.49019607843137,101.0,-126.0,7.28,0.09,-15.57
2458.15,-77.49019607843137,-78.0,-218.0,30.13,2.61,-27.5
2458.2,-267.4901960784314,248.0,-264.0,38.78,-0.71,-20.82
2458.25,-172.49019607843138,35.0,-141.0,29.96,-11.0,-13.5
2458.3,263.01960784313724,35.0,-310.0,2.59,-9.18,-0.97
2458.35,311.01960784313724,19.0,-3.0,7.03,-10.3,-9.62
2458.4,-299.4901960784314,-78.0,-249.0,21.52,-12.33,-3.88
2458.45,-315.4901960784314,264.0,-233.0,17.18,-7.36,-17.0
2458.5,-283.4901960784314,-143.0,-79.0,8.43,5.16,-13.54
2458.55,-213.98039215686273,-263.5098039215686,316.5098039215686,5.21,16.61,-15.08
2458.6,-260.98039215686276,-143.0,301.5098039215686,-14.48,-15.9,36.57
2458.65,115.05882352941177,-23.49019607843137,-267.4901960784314,-68.28,-1.62,4.13
2458.7,104.01960784313725,183.0,286.5098039215686,-34.68,33.79,2.97
2458.75,2.5098039215686274,-263.5098039215686,46.490196078431374,29.92,14.26,4.65
2458.8,-315.4901960784314,-18.50980392156863,-187.0,31.36,24.45,5.49
2458.85,311.01960784313724,232.0,-64.0,-18.19,9.4,17.85
2458.9,-236.49019607843138,117.0,-233.0,-2.09,2.26,15.33
2458.95,-315.4901960784314,281.0,-172.0,-24.6,-7.08,24.53
2459.0,200.01960784313727,3.0,-172.0,-35.45,-15.34,24.57
2459.05,263.01960784313724,101.0,-233.0,-32.68,-30.95,30.45
2459.1,-220.49019607843138,199.0,-110.0,-30.13,-26.57,34.51
2459.15,-204.49019607843138,117.0,-203.0,-13.19,-27.55,29.75
2459.2,-252.49019607843138,150.0,-187.0,3.11,-41.38,34.16
2459.25,65.50980392156863,166.0,-79.0,-18.72,-43.9,38.18
2459.3,320.5098039215686,35.0,-49.0,-15.71,-36.27,26.91
2459.35,288.5098039215686,313.0,43.0,-12.56,17.27,-8.74
2459.4,177.50980392156862,-182.50980392156862,89.0,-7.76,27.84,-16.2
2459.45,-61.490196078431374,-296.5098039215686,150.0,8.33,14.02,-17.67
2459.5,-252.49019607843138,84.0,-264.0,2.66,27.67,-24.14
2459.55,295.01960784313724,313.0,12.0,6.19,25.11,-35.66
2459.6,-61.490196078431374,248.0,-156.0,15.78,10.76,-32.02
2459.65,-124.49019607843137,297.0,-95.0,38.88,-6.1,-24.95
2459.7,-108.49019607843137,199.0,-295.0,-4.75,6.88,-19.87
2459.75,34.509803921568626,117.0,104.0,19.49,-3.33,-31.14
2459.8,-108.49019607843137,264.0,-187.0,-12.8,4.01,-19.03
2459.85,311.01960784313724,-160.0,-126.0,31.71,11.18,-17.32
2459.9,263.01960784313724,215.0,-64.0,14.28,0.61,-17.21
2459.95,72.01960784313725,-78.0,-172.0,24.88,15.31,-14.52
2460.0,136.01960784313727,-247.50980392156862,-18.0,11.93,8.45,-15.67
2460.05,-93.49019607843137,-290.0,-233.0,34.47,16.5,-25.16
2460.1,152.01960784313727,-84.50980392156863,-79.0,-157.67,-88.17,12.21
2460.15,-75.94117647058823,-192.0,-13.470588235294118,88.2,66.94,-12.38
2460.2,-188.49019607843138,291.4901960784314,230.49019607843138,76.12,51.19,-0.97
2460.25,233.0,-236.01960784313727,230.49019607843138,16.31,25.43,7.49
2460.3,-299.4901960784314,313.0,-295.0,-2.09,11.36,14.42
2460.35,88.01960784313725,19.0,163.50980392156862,-28.06,0.51,22.08
2460.4,120.01960784313725,166.0,316.5098039215686,-4.51,-6.76,23.38
2460.45,168.01960784313727,199.0,-126.0,-27.08,-10.12,30.03
2460.5,-267.4901960784314,19.0,-49.0,-31.88,-17.3,33.84
2460.55,-315.4901960784314,133.0,-126.0,-24.88,-21.11,39.09
2460.6,231.01960784313727,166.0,-310.0,-31.77,-18.14,42.21
2460.65,-283.4901960784314,117.0,-64.0,-0.24,-22.72,36.68
2460.7,-61.490196078431374,150.0,-110.0,-4.86,-29.2,36.36
2460.75,145.50980392156862,3.0,-126.0,-14.1,-22.44,24.99
2460.8,-227.0,35.0,-49.0,-9.13,-4.28,-0.48
2460.85,113.50980392156863,264.0,-3.0,-24.21,16.75,-8.95
2460.9,-172.49019607843138,297.0,-18.0,2.97,10.97,-20.33
2460.95,-220.49019607843138,-263.5098039215686,-156.0,23.59,9.12,-30.55
2461.0,-156.49019607843138,-263.5098039215686,-187.0,3.99,14.82,-27.75
2461.05,-236.49019607843138,248.0,27.0,12.18,3.94,-25.19
2461.1,49.509803921568626,133.0,-64.0,10.53,3.69,-27.61
2461.15,-45.490196078431374,3.0,-18.0,45.99,5.44,-35.06
2461.2,-315.4901960784314,166.0,301.5098039215686,11.86,4.18,-13.82
2461.25,311.01960784313724,-62.0,-126.0,22.12,8.91,-26.94
2461.3,-156.49019607843138,313.0,-33.0,4.9,-9.25,-15.71
2461.35,9.019607843137255,-192.0,255.50980392156862,4.23,3.48,-16.48
2461.4,72.01960784313725,19.0,-172.0,-9.16,8.73,-12.24
2461.45,-315.4901960784314,-160.0,-141.0,9.27,1.31,-15.08
2461.5,279.01960784313724,19.0,-295.0,16.9,13.21,-28.03
2461.55,184.01960784313727,84.0,43.0,33.07,-8.79,-12.14
2461.6,-133.98039215686273,-143.0,316.5098039215686,-69.22,-46.63,36.92
2461.65,197.58823529411765,-94.0,301.5098039215686,24.25,56.65,-13.36
2461.7,-218.50980392156862,183.0,-177.52941176470588,-3.56,-8.79,4.2
2461.75,-245.98039215686273,79.49019607843137,-64.0,-9.86,2.71,20.61
2461.8,-22.980392156862745,-29.0,-49.0,1.43,16.01,7.17
2461.85,-165.98039215686273,248.0,-141.0,14.35,-4.0,11.93
2461.9,57.01960784313726,-13.0,-126.0,-12.03,5.9,14.63
2461.95,-22.980392156862745,3.0,-95.0,-6.29,-10.37,21.0
2462.0,120.01960784313725,3.0,-264.0,-10.18,-2.0,22.89
2462.05,311.01960784313724,35.0,12.0,9.34,-10.23,15.36
2462.1,-220.49019607843138,-29.0,-249.0,-3.81,-8.34,30.24
2462.15,-252.49019607843138,232.0,-79.0,-13.78,-20.48,32.9
2462.2,-61.490196078431374,-94.0,-203.0,-9.9,-10.19,31.01
2462.25,49.509803921568626,183.0,27.0,-3.14,-10.19,29.15
2462.3,193.50980392156862,117.0,-233.0,-28.1,2.5,15.36
2462.35,288.5098039215686,133.0,89.0,-1.18,11.08,-8.01
2462.4,145.50980392156862,313.0,150.0,-15.81,18.67,-16.41
2462.45,49.509803921568626,297.0,27.0,26.53,-4.17,-22.36
2462.5,-204.49019607843138,-263.5098039215686,-264.0,19.81,0.37,-20.96
2462.55,-124.49019607843137,101.0,12.0,26.11,4.99,-22.08
2462.6,-220.49019607843138,84.0,-33.0,6.75,1.77,-13.75
2462.65,-140.49019607843138,166.0,-249.0,19.35,11.67,-26.28
2462.7,-204.49019607843138,-312.5098039215686,-95.0,19.14,9.05,-20.92
2462.75,-299.4901960784314,-13.0,-156.0,18.34,-0.92,-22.6
2462.8,247.01960784313727,133.0,-295.0,-7.1,-9.7,-1.64
2462.85,57.01960784313726,-94.0,-264.0,7.56,-10.82,-4.86
2462.9,168.01960784313727,-280.5098039215686,-126.0,-9.58,-10.4,-9.86
2462.95,-156.49019607843138,303.5098039215686,316.5098039215686,11.9,1.24,-19.94
2463.0,-54.98039215686274,-296.5098039215686,-79.0,11.41,10.52,-19.98
2463.05,-70.98039215686275,-160.0,316.5098039215686,80.11,22.28,-35.52
2463.1,-48.470588235294116,-116.50980392156863,-249.0,-177.69,-11.35,11.51
2463.15,64.07843137254902,-268.4901960784314,124.52941176470588,9.97,49.93,-22.78
2463.2,-93.49019607843137,-148.98039215686273,39.509803921568626,-8.81,1.66,8.36
2463.25,-93.49019607843137,210.01960784313727,-221.49019607843138,21.52,6.46,-1.32
2463.3,295.01960784313724,79.49019607843137,196.0,-17.07,6.88,6.72
2463.35,231.01960784313727,-111.0,-64.0,2.94,3.59,13.72
2463.4,-70.98039215686275,117.0,286.5098039215686,-14.94,-5.61,18.16
2463.45,263.01960784313724,-45.0,-64.0,-13.85,-12.36,24.18
2463.5,263.01960784313724,183.0,-33.0,-24.14,-17.51,32.37
2463.55,231.01960784313727,68.0,286.5098039215686,-22.88,-20.41,44.41
2463.6,-283.4901960784314,52.0,-187.0,-25.58,-28.01,54.32
2463.65,-236.49019607843138,19.0,-203.0,-36.15,-16.35,63.1
2463.7,-124.49019607843137,150.0,-49.0,8.29,-32.84,59.46
2463.75,256.5098039215686,68.0,-95.0,-24.07,-25.0,63.66
2463.8,-211.0,84.0,-18.0,35.42,2.19,40.7
2463.85,-290.0,232.0,-18.0,88.41,30.29,-1.81
2463.9,25.019607843137255,160.49019607843138,-307.5098039215686,169.57,14.16,14.52
2463.95,216.01960784313727,-214.50980392156862,224.50980392156862,239.82,-4.77,102.83
2464.0,-172.49019607843138,46.490196078431374,147.50980392156862,88.44,-15.58,137.55
2464.05,200.01960784313727,-312.5098039215686,166.0,168.52,-19.82,122.74
2464.1,216.01960784313727,-263.5098039215686,-172.0,165.55,-21.29,90.4
2464.15,-283.4901960784314,-263.5098039215686,104.0,77.07,-22.34,69.4
2464.2,-77.49019607843137,68.0,-126.0,4.76,-11.56,34.02
2464.25,-29.49019607843137,248.0,-233.0,6.05,-6.55,0.98
2464.3,-29.49019607843137,199.0,239.50980392156862,-24.74,-12.57,-8.53
2464.35,-93.49019607843137,-214.50980392156862,70.50980392156863,-38.25,-26.96,-2.48
2464.4,-29.49019607843137,-312.5098039215686,-6.490196078431373,13.68,-36.86,4.37
2464.45,18.50980392156863,-116.50980392156863,-190.49019607843138,32.79,-35.01,4.76
2464.5,49.509803921568626,-100.50980392156863,-98.49019607843137,51.06,-10.3,17.11
2464.55,-45.490196078431374,144.49019607843138,-190.49019607843138,73.01,3.97,33.04
2464.6,2.5098039215686274,111.49019607843137,-67.49019607843137,140.66,12.41,61.14
2464.65,-45.490196078431374,-236.01960784313727,-83.49019607843137,157.95,27.67,96.84
2464.7,34.509803921568626,-318.01960784313724,55.509803921568626,215.25,32.15,125.37
2464.75,113.50980392156863,-286.01960784313724,-21.49019607843137,201.91,42.82,146.44
2464.8,97.50980392156863,193.49019607843138,24.50980392156863,198.59,44.5,148.47
2464.85,145.50980392156862,62.490196078431374,-52.490196078431374,150.71,53.01,137.97
2464.9,193.50980392156862,-84.50980392156863,-52.490196078431374,104.79,48.81,128.48
2464.95,256.5098039215686,-263.5098039215686,-98.49019607843137,80.01,41.67,109.97
2465.0,304.5098039215686,199.0,-113.49019607843137,32.3,27.18,89.28
2465.05,-290.0,52.0,-83.49019607843137,39.69,13.81,69.51
2465.1,-211.0,19.0,-267.4901960784314,19.7,12.37,46.62
2465.15,-195.0,-62.0,-206.49019607843138,-2.06,13.11,18.76
2465.2,-259.0,-143.0,298.01960784313724,57.08,-8.2,14.52
2465.25,-84.0,84.0,267.01960784313724,-4.68,37.15,16.9
2465.3,-131.0,84.0,282.01960784313724,40.67,23.12,-5.24
2465.35,-4.0,-127.0,282.01960784313724,6.16,16.29,-5.87
2465.4,-84.0,-192.0,313.01960784313724,19.28,9.71,0.94
2465.45,-84.0,-45.0,313.01960784313724,-12.77,9.05,22.15
2465.5,27.0,-143.0,-267.4901960784314,-14.66,9.57,40.46
2465.55,-36.0,-29.0,206.01960784313727,-19.73,2.92,11.93
2465.6,42.0,-94.0,313.01960784313724,5.46,-1.51,9.1
2465.65,27.0,3.0,-313.4901960784314,-12.94,1.45,10.74
2465.7,58.0,-111.0,282.01960784313724,-11.37,-2.0,8.22
2465.75,42.0,19.0,298.01960784313724,-21.97,-5.08,14.1
2465.8,11.0,19.0,252.01960784313727,-12.38,-7.6,12.81
2465.85,27.0,3.0,298.01960784313724,-17.18,-8.23,17.95
2465.9,-4.0,-45.0,267.01960784313724,-11.61,-8.69,23.9
2465.95,27.0,35.0,282.01960784313724,-25.47,-12.05,27.61
2466.0,42.0,-29.0,313.01960784313724,-18.75,-14.92,25.9
2466.05,42.0,52.0,313.01960784313724,-27.54,-13.03,16.06
2466.1,-52.0,3.0,313.01960784313724,-13.82,-12.19,18.13
2466.15,-36.0,52.0,252.01960784313727,-12.73,-13.66,16.34
2466.2,-20.0,35.0,282.01960784313724,-18.26,-13.27,9.69
2466.25,-20.0,52.0,252.01960784313727,-12.14,-12.78,0.8
2466.3,-52.0,35.0,252.01960784313727,-16.41,-7.95,-15.5
2466.35,-36.0,-13.0,282.01960784313724,-24.74,-6.34,-21.94
2466.4,-52.0,52.0,267.01960784313724,11.51,-12.29,-33.0
2466.45,-20.0,232.0,236.01960784313727,11.3,-26.4,20.09
2466.5,74.0,84.0,221.01960784313727,-33.0,-5.85,-17.6
2466.55,-243.0,117.0,175.01960784313727,-24.56,-3.58,-22.36
2466.6,-131.0,313.0,159.01960784313727,-41.82,26.13,-9.13
2466.65,-243.0,133.0,190.01960784313727,-21.41,23.26,-16.97
2466.7,81.50980392156863,19.0,298.01960784313724,-21.73,32.6,-3.49
2466.75,-179.0,232.0,-252.49019607843138,-5.35,66.38,-11.3
2466.8,193.50980392156862,-165.50980392156862,-206.49019607843138,-50.71,48.46,-2.93
2466.85,-68.0,-280.5098039215686,-98.49019607843137,35.0,-1.93,8.22
2466.9,27.0,281.0,-83.49019607843137,37.06,-18.56,-27.47
2466.95,74.0,199.0,-298.4901960784314,21.17,-39.45,-56.1
2467.0,201.0,117.0,-221.49019607843138,-55.4,-39.8,142.83
2467.05,-116.0,150.0,267.01960784313724,36.08,-15.76,-8.08
2467.1,-236.49019607843138,62.490196078431374,67.01960784313725,43.96,-16.42,12.49
2467.15,-195.0,117.0,313.01960784313724,42.24,-11.98,36.19
2467.2,-147.0,232.0,298.01960784313724,63.59,-25.49,63.56
2467.25,-84.0,215.0,313.01960784313724,23.8,-7.81,23.52
2467.3,304.5098039215686,-143.0,-283.4901960784314,11.76,5.62,14.21
2467.35,-227.0,52.0,313.01960784313724,-9.27,37.82,6.02
2467.4,-116.0,35.0,282.01960784313724,-36.36,52.59,-8.04
2467.45,-195.0,-29.0,-283.4901960784314,-10.67,19.93,-12.73
2467.5,-36.0,68.0,313.01960784313724,-3.21,25.36,30.03
2467.55,-20.0,35.0,252.01960784313727,5.56,25.92,59.39
2467.6,-211.0,101.0,221.01960784313727,42.0,-6.55,55.44
2467.65,74.0,117.0,82.01960784313725,-40.38,50.84,64.4
2467.7,-100.0,183.0,-267.4901960784314,-60.82,37.29,98.52
2467.75,138.0,-296.5098039215686,236.01960784313727,-35.66,25.36,125.79
2467.8,-20.0,232.0,-283.4901960784314,13.3,12.44,99.54
2467.85,313.0,281.0,-283.4901960784314,-20.29,-22.34,24.08
2467.9,-218.50980392156862,150.0,-175.49019607843138,-27.15,-42.32,-22.6
2467.95,-282.5098039215686,84.0,-298.4901960784314,8.54,-32.52,26.07
2468.0,281.0,297.0,-298.4901960784314,-13.4,-15.65,33.14
2468.05,138.0,150.0,-283.4901960784314,-16.9,7.93,78.12
2468.1,186.0,199.0,-313.4901960784314,22.61,-17.23,66.95
2468.15,281.0,313.0,-313.4901960784314,15.05,-17.68,50.36
2468.2,217.0,19.0,313.01960784313724,9.06,-19.57,-14.2
2468.25,138.0,35.0,298.01960784313724,-21.03,-15.55,-60.79
2468.3,186.0,19.0,-283.4901960784314,33.35,-12.43,-33.38
2468.35,74.0,101.0,175.01960784313727,-13.05,55.67,28.59
2468.4,233.0,248.0,221.01960784313727,25.3,-4.03,-39.75
2468.45,11.0,-296.5098039215686,-9.980392156862745,1.43,-59.23,-123.3
2468.5,58.0,150.0,-175.49019607843138,39.83,-35.78,-64.46
2468.55,11.0,68.0,-283.4901960784314,-13.47,43.03,-8.32
2468.6,-20.0,-312.5098039215686,-283.4901960784314,-15.78,24.06,-16.34
2468.65,-68.0,199.0,282.01960784313724,-8.81,-15.58,-63.13
2468.7,-20.0,35.0,-283.4901960784314,25.93,-47.08,-95.93
2468.75,11.0,84.0,313.01960784313724,0.84,-24.09,-57.67
2468.8,-84.0,150.0,298.01960784313724,-11.09,0.3,-8.04
2468.85,-68.0,133.0,-283.4901960784314,-2.65,3.27,-8.74
2468.9,-52.0,150.0,236.01960784313727,3.53,20.81,3.32
2468.95,-52.0,52.0,221.01960784313727,2.48,23.92,12.07
2469.0,-52.0,52.0,-313.4901960784314,-3.91,44.61,46.65
2469.05,11.0,101.0,252.01960784313727,12.28,51.85,76.23
2469.1,122.0,84.0,236.01960784313727,15.01,48.63,74.79
2469.15,11.0,19.0,175.01960784313727,-19.7,18.74,26.11
2469.2,297.0,84.0,206.01960784313727,8.82,-22.86,-1.57
2469.25,201.0,248.0,282.01960784313724,23.76,-35.92,24.46
2469.3,186.0,183.0,-237.49019607843138,17.71,-13.66,60.76
2469.35,138.0,133.0,-206.49019607843138,-7.41,11.78,75.42
2469.4,170.0,248.0,-190.49019607843138,-44.55,56.26,105.7
2469.45,265.0,68.0,298.01960784313724,-1.01,26.37,62.96
2469.5,217.0,183.0,129.01960784313727,-21.2,-3.82,12.18
2469.55,217.0,-111.0,-283.4901960784314,-12.45,-10.96,-13.89
2469.6,170.0,35.0,-267.4901960784314,21.84,-49.95,-27.57
2469.65,233.0,52.0,-313.4901960784314,-26.73,-27.55,-11.58
2469.7,249.0,68.0,-283.4901960784314,9.45,-50.3,-10.88
2469.75,265.0,84.0,-298.4901960784314,37.31,-44.77,45.74
2469.8,58.0,133.0,221.01960784313727,19.67,-29.06,18.65
2469.85,-36.0,-62.0,267.01960784313724,9.97,-18.0,-11.65
2469.9,58.0,3.0,313.01960784313724,-9.76,6.21,-71.57
2469.95,42.0,-94.0,267.01960784313724,-12.8,4.18,-83.75
2470.0,27.0,-111.0,236.01960784313727,2.41,0.86,-68.49
2470.05,74.0,35.0,252.01960784313727,-9.65,-13.24,-19.38
2470.1,186.0,-13.0,190.01960784313727,27.61,-24.47,-24.77
2470.15,-4.0,313.0,21.019607843137255,-0.87,-16.88,-74.12
2470.2,-52.0,84.0,-313.4901960784314,-30.2,7.16,-86.86
2470.25,-100.0,52.0,-313.4901960784314,24.57,-34.66,8.01
2470.3,58.0,281.0,-283.4901960784314,0.63,-19.5,-5.31
2470.35,272.5098039215686,19.0,-313.4901960784314,-47.35,13.77,-55.68
2470.4,-163.0,-45.0,282.01960784313724,-55.75,26.83,-69.64
2470.45,-179.0,-13.0,252.01960784313727,-20.4,-4.73,-58.16
2470.5,-20.0,133.0,-298.4901960784314,-28.9,-14.92,-29.43
2470.55,11.0,52.0,-283.4901960784314,-27.33,-9.0,-15.5
2470.6,-147.0,117.0,-313.4901960784314,-45.35,12.69,-28.83
2470.65,-68.0,101.0,282.01960784313724,-23.16,13.6,-26.0
2470.7,-163.0,101.0,-283.4901960784314,-29.08,16.82,-24.81
2470.75,-68.0,166.0,-298.4901960784314,27.4,-1.23,-16.23
2470.8,-179.0,68.0,236.01960784313727,-26.42,-19.96,-14.2
2470.85,272.5098039215686,-62.0,-160.49019607843138,-35.27,-32.94,-14.27
2470.9,193.50980392156862,3.0,-160.49019607843138,-90.71,-36.44,-55.89
2470.95,304.5098039215686,183.0,-252.49019607843138,-99.04,-11.35,-61.8
2471.0,-227.0,166.0,206.01960784313727,19.74,-60.17,-36.25
2471.05,-227.0,275.4901960784314,-193.98039215686273,-27.26,-100.35,-10.35
2471.1,-306.0,-247.50980392156862,132.50980392156862,-5.0,-129.68,19.98
2471.15,-306.0,30.49019607843137,-175.49019607843138,38.53,-122.16,24.67
2471.2,-275.0,-18.50980392156863,236.01960784313727,-0.13,-74.28,24.81
2471.25,193.50980392156862,-165.50980392156862,298.01960784313724,39.16,-54.15,26.84
2471.3,256.5098039215686,13.490196078431373,-236.49019607843138,46.27,-52.75,41.93
2471.35,-243.0,-312.5098039215686,-36.490196078431374,6.72,-55.03,91.66
2471.4,304.5098039215686,95.49019607843137,101.50980392156863,1.68,-37.18,57.82
2471.45,-195.0,-84.50980392156863,-21.49019607843137,27.58,-17.51,21.87
2471.5,-243.0,166.0,101.50980392156863,2.62,9.5,21.49
2471.55,272.5098039215686,-51.509803921568626,-252.49019607843138,36.64,-38.23,21.84
2471.6,145.50980392156862,-100.50980392156863,316.5098039215686,0.49,-34.06,-7.48
2471.65,263.01960784313724,-116.50980392156863,24.50980392156863,7.03,-7.71,-33.17
2471.7,-156.49019607843138,-35.509803921568626,-144.49019607843138,4.72,18.95,-43.71
2471.75,-108.49019607843137,128.49019607843138,-283.4901960784314,13.23,14.68,-36.71
2471.8,-236.49019607843138,-247.50980392156862,-21.49019607843137,8.22,-21.43,-12.28
2471.85,18.50980392156863,264.0,286.5098039215686,-0.1,-6.73,2.97
2471.9,65.50980392156863,-214.50980392156862,-52.490196078431374,25.3,-18.77,15.19
2471.95,-13.490196078431373,-296.5098039215686,-175.49019607843138,24.01,-35.32,28.52
2472.0,-140.49019607843138,232.0,9.509803921568627,35.28,-45.33,39.02
2472.05,34.509803921568626,297.0,-21.49019607843137,54.35,-44.21,46.55
2472.1,65.50980392156863,-312.5098039215686,-98.49019607843137,55.58,-52.68,64.01
2472.15,34.509803921568626,-280.5098039215686,-6.490196078431373,61.95,-53.94,74.83
2472.2,2.5098039215686274,-247.50980392156862,9.509803921568627,65.2,-52.37,79.27
2472.25,2.5098039215686274,281.0,24.50980392156863,59.18,-37.14,79.73
2472.3,2.5098039215686274,313.0,-37.490196078431374,65.9,-16.81,81.97
2472.35,81.50980392156863,-296.5098039215686,-160.49019607843138,60.13,-17.19,98.07
2472.4,161.50980392156862,-165.50980392156862,-98.49019607843137,58.2,-50.51,118.96
2472.45,49.509803921568626,-318.01960784313724,193.50980392156862,57.5,-48.17,91.91
2472.5,-188.49019607843138,46.490196078431374,24.50980392156863,21.8,-61.01,83.75
2472.55,65.50980392156863,-149.50980392156862,316.5098039215686,32.41,-73.23,87.5
2472.6,256.5098039215686,160.49019607843138,270.5098039215686,36.5,-62.06,70.7
2472.65,177.50980392156862,-2.5098039215686274,116.50980392156863,33.81,-35.46,57.01
2472.7,113.50980392156863,46.490196078431374,-98.49019607843137,41.05,-25.17,47.32
2472.75,177.50980392156862,46.490196078431374,-21.49019607843137,48.72,-33.96,37.55
2472.8,193.50980392156862,46.490196078431374,132.50980392156862,46.72,-39.17,33.39
2472.85,81.50980392156863,30.49019607843137,39.509803921568626,52.08,-41.9,31.78
2472.9,129.50980392156862,30.49019607843137,-36.490196078431374,59.81,-44.28,29.19
2472.95,208.50980392156862,13.490196078431373,9.509803921568627,58.87,-44.0,21.94
2473.0,145.50980392156862,-35.509803921568626,39.509803921568626,47.91,-38.44,10.01
2473.05,97.50980392156863,-18.50980392156863,24.50980392156863,41.72,-31.02,7.42
2473.1,129.50980392156862,-18.50980392156863,-21.49019607843137,44.76,-26.33,9.17
2473.15,177.50980392156862,-84.50980392156863,-6.490196078431373,39.34,-20.52,12.56
2473.2,193.50980392156862,-67.50980392156863,9.509803921568627,40.46,-22.65,12.35
2473.25,145.50980392156862,-67.50980392156863,86.50980392156863,43.01,-20.27,3.25
2473.3,2.5098039215686274,-182.50980392156862,-67.49019607843137,60.76,-21.92,-2.51
2473.35,-45.490196078431374,-116.50980392156863,-190.49019607843138,58.41,-41.66,13.61
2473.4,-61.490196078431374,166.0,24.50980392156863,21.8,-61.12,43.12
2473.45,34.509803921568626,264.0,55.509803921568626,55.54,-40.33,47.84
2473.5,-13.490196078431373,-296.5098039215686,313.01960784313724,68.49,-27.69,44.59
2473.55,-140.49019607843138,215.0,-98.49019607843137,54.6,-38.72,40.25
2473.6,-45.490196078431374,150.0,147.50980392156862,72.83,-41.13,48.26
2473.65,81.50980392156863,281.0,-52.490196078431374,73.01,-51.81,65.24
2473.7,18.50980392156863,297.0,-6.490196078431373,70.87,-60.38,78.33
2473.75,-45.490196078431374,-312.5098039215686,-21.49019607843137,73.01,-46.21,78.05
2473.8,-77.49019607843137,-312.5098039215686,-98.49019607843137,67.55,-43.37,76.51
2473.85,-13.490196078431373,-312.5098039215686,86.50980392156863,65.38,-45.54,69.86
2473.9,-45.490196078431374,297.0,101.50980392156863,52.46,-48.94,63.24
2473.95,-140.49019607843138,297.0,116.50980392156863,43.61,-39.8,55.58
2474.0,-93.49019607843137,-263.5098039215686,-6.490196078431373,41.44,-22.13,50.12
2474.05,-61.490196078431374,313.0,-36.490196078431374,40.88,-2.63,44.97
2474.1,34.509803921568626,-312.5098039215686,-6.490196078431373,37.17,-0.11,37.94
2474.15,-45.490196078431374,281.0,55.509803921568626,5.63,6.88,37.73
2474.2,-108.49019607843137,297.0,24.50980392156863,4.86,4.32,39.06
2474.25,-13.490196078431373,-247.50980392156862,24.50980392156863,0.56,-10.54,65.13
2474.3,-108.49019607843137,95.49019607843137,70.50980392156863,-16.41,11.92,26.67
2474.35,311.01960784313724,-263.5098039215686,-52.490196078431374,-5.87,-6.2,33.18
2474.4,-29.49019607843137,-182.50980392156862,101.50980392156863,13.47,-27.1,47.95
2474.45,177.50980392156862,-116.50980392156863,209.50980392156862,21.73,-24.12,40.07
2474.5,81.50980392156863,-51.509803921568626,9.509803921568627,49.7,-8.55,19.14
2474.55,-13.490196078431373,-2.5098039215686274,-221.49019607843138,29.96,-17.58,18.65
2474.6,-45.490196078431374,-182.50980392156862,70.50980392156863,22.26,-30.28,23.41
2474.65,145.50980392156862,-84.50980392156863,162.50980392156862,33.42,-18.84,16.41
2474.7,34.509803921568626,-100.50980392156863,-21.49019607843137,24.64,-14.88,6.93
2474.75,18.50980392156863,-84.50980392156863,116.50980392156863,3.46,-11.28,-1.04
2474.8,18.50980392156863,-133.50980392156862,116.50980392156863,-10.14,-10.23,-6.15
2474.85,81.50980392156863,-133.50980392156862,86.50980392156863,-6.85,-5.26,-11.51
2474.9,49.509803921568626,-133.50980392156862,-6.490196078431373,-13.5,1.38,-21.03
2474.95,-13.490196078431373,-165.50980392156862,-6.490196078431373,-20.92,7.02,-27.92
2475.0,2.5098039215686274,-165.50980392156862,9.509803921568627,-24.77,16.75,-36.99
2475.05,65.50980392156863,-149.50980392156862,-36.490196078431374,-21.1,31.9,-49.27
2475.1,81.50980392156863,-214.50980392156862,-67.49019607843137,-7.38,35.96,-62.33
2475.15,81.50980392156863,-182.50980392156862,-129.49019607843138,0.66,39.36,-65.69
2475.2,311.01960784313724,-2.5098039215686274,-298.4901960784314,-6.15,2.22,-39.82
2475.25,-315.4901960784314,-280.5098039215686,147.50980392156862,-31.53,-26.36,-19.24
2475.3,34.509803921568626,133.0,-295.0,-29.5,7.09,-12.42
2475.35,129.50980392156862,-263.5098039215686,9.509803921568627,3.74,30.4,-12.94
2475.4,-61.490196078431374,264.0,-221.49019607843138,-1.81,8.1,-10.39
2475.45,-108.49019607843137,215.0,178.50980392156862,-18.51,-6.06,-9.41
2475.5,-108.49019607843137,183.0,163.50980392156862,-5.77,-3.58,-4.79
2475.55,-13.490196078431373,248.0,-98.49019607843137,2.34,-4.91,8.05
2475.6,18.50980392156863,215.0,-37.490196078431374,10.29,-2.42,14.35
2475.65,34.509803921568626,215.0,-83.49019607843137,19.11,-2.67,22.19
2475.7,18.50980392156863,199.0,-36.490196078431374,12.74,1.35,26.04
2475.75,-93.49019607843137,281.0,-83.49019607843137,-8.25,26.37,28.8
2475.8,-29.49019607843137,150.0,-144.49019607843138,18.48,49.33,42.0
2475.85,145.50980392156862,-312.5098039215686,267.01960784313724,73.88,11.64,81.2
2475.9,145.50980392156862,-2.5098039215686274,-175.49019607843138,36.64,-3.58,60.13
2475.95,295.01960784313724,-280.5098039215686,-144.49019607843138,1.64,-38.19,62.58
2476.0,-140.49019607843138,-231.50980392156862,147.50980392156862,26.81,-61.61,63.38
2476.05,208.50980392156862,-2.5098039215686274,116.50980392156863,56.38,-48.38,43.33
2476.1,145.50980392156862,-133.50980392156862,39.509803921568626,23.03,-30.25,27.3
2476.15,-61.490196078431374,-116.50980392156863,39.509803921568626,6.68,-25.38,15.96
2476.2,34.509803921568626,-182.50980392156862,101.50980392156863,9.34,-24.51,13.05
2476.25,145.50980392156862,-133.50980392156862,39.509803921568626,11.97,-17.89,11.13
2476.3,113.50980392156863,-198.50980392156862,-37.490196078431374,17.22,-16.39,10.57
2476.35,113.50980392156863,-182.50980392156862,-36.490196078431374,18.13,-13.06,9.48
2476.4,81.50980392156863,-100.50980392156863,-36.490196078431374,14.56,-12.61,2.45
2476.45,49.509803921568626,-165.50980392156862,39.509803921568626,4.93,-4.77,-10.28
2476.5,-13.490196078431373,-165.50980392156862,39.509803921568626,-5.77,25.04,-38.0
2476.55,-13.490196078431373,-231.50980392156862,-52.490196078431374,6.65,45.34,-53.44
2476.6,-108.49019607843137,-116.50980392156863,-175.49019607843138,49.77,38.52,-54.66
2476.65,-252.49019607843138,-18.50980392156863,-144.49019607843138,3.95,-0.71,-32.96
2476.7,-156.49019607843138,68.0,286.5098039215686,-48.05,-0.67,-7.38
2476.75,49.509803921568626,297.0,9.509803921568627,-9.09,16.05,-2.09
2476.8,145.50980392156862,-312.5098039215686,-175.49019607843138,-4.75,9.12,-0.83
2476.85,2.5098039215686274,183.0,9.509803921568627,7.84,2.96,1.12
2476.9,-45.490196078431374,232.0,-21.49019607843137,14.45,5.65,3.74
2476.95,-13.490196078431373,183.0,-175.49019607843138,-4.72,-7.32,9.97
2477.0,34.509803921568626,264.0,-21.49019607843137,-0.94,-7.74,13.96
2477.05,-13.490196078431373,248.0,-83.49019607843137,-1.08,-6.48,14.28
2477.1,-13.490196078431373,264.0,-67.49019607843137,-6.85,-6.34,5.11
2477.15,-61.490196078431374,183.0,-6.490196078431373,-22.08,19.65,-2.51
2477.2,18.50980392156863,215.0,-190.49019607843138,8.33,46.74,-8.46
2477.25,145.50980392156862,199.0,298.01960784313724,-1.18,54.55,1.71
2477.3,145.50980392156862,150.0,-267.4901960784314,25.76,14.86,42.98
2477.35,193.50980392156862,193.49019607843138,-144.49019607843138,40.53,9.71,22.54
2477.4,295.01960784313724,183.0,236.01960784313727,-17.49,-25.73,27.44
2477.45,2.5098039215686274,281.0,209.50980392156862,6.3,-52.3,42.56
2477.5,304.5098039215686,-67.50980392156863,24.50980392156863,54.6,-34.9,25.41
2477.55,129.50980392156862,-84.50980392156863,-160.49019607843138,9.8,-18.03,2.94
2477.6,-156.49019607843138,-280.5098039215686,-36.490196078431374,-15.99,-17.54,-13.5
2477.65,-45.490196078431374,-280.5098039215686,101.50980392156863,-18.3,-18.14,-14.8
2477.7,113.50980392156863,-198.50980392156862,39.509803921568626,-20.75,-11.56,-18.93
2477.75,113.50980392156863,-231.50980392156862,-67.49019607843137,-18.54,-6.66,-25.05
2477.8,81.50980392156863,-247.50980392156862,-52.490196078431374,-17.67,-6.97,-30.79
2477.85,18.50980392156863,-247.50980392156862,-37.490196078431374,-24.77,-2.98,-36.71
2477.9,-45.490196078431374,-198.50980392156862,-52.490196078431374,-24.42,7.54,-43.57
2477.95,2.5098039215686274,-263.5098039215686,-52.490196078431374,-27.36,27.91,-56.13
2478.0,2.5098039215686274,-312.5098039215686,-52.490196078431374,14.73,21.16,-76.64
2478.05,-93.49019607843137,-116.50980392156863,9.509803921568627,-45.18,8.87,-88.72
2478.1,9.019607843137255,-165.50980392156862,70.50980392156863,-79.3,-4.42,-82.21
2478.15,-267.4901960784314,166.0,286.5098039215686,-97.08,29.49,-78.5
2478.2,97.50980392156863,313.0,86.50980392156863,-58.41,61.9,-83.33
2478.25,113.50980392156863,297.0,-113.49019607843137,-60.61,50.66,-79.09
2478.3,-61.490196078431374,19.0,86.50980392156863,-81.89,35.72,-66.6
2478.35,-124.49019607843137,101.0,86.50980392156863,-71.18,34.6,-49.52
2478.4,18.50980392156863,101.0,-113.49019607843137,-38.18,37.26,-30.58
2478.45,177.50980392156862,101.0,-206.49019607843138,8.47,17.24,-9.13
2478.5,49.509803921568626,35.0,-175.49019607843138,-29.92,16.75,-8.22
2478.55,-236.49019607843138,35.0,-67.49019607843137,-19.1,43.56,-17.88
2478.6,-93.49019607843137,52.0,-313.4901960784314,-19.87,67.15,-28.66
2478.65,113.50980392156863,-62.0,-236.49019607843138,-61.87,68.76,-9.3
2478.7,193.50980392156862,-62.0,-175.49019607843138,18.72,40.83,21.0
2478.75,49.509803921568626,-40.01960784313726,-113.49019607843137,-23.58,34.81,-10.56
2478.8,200.01960784313727,-225.0,313.01960784313724,-44.83,-7.39,-4.75
2478.85,81.50980392156863,-133.50980392156862,162.50980392156862,-12.87,-13.8,-9.69
2478.9,193.50980392156862,-133.50980392156862,-129.49019607843138,-19.35,-1.76,-18.65
2478.95,65.50980392156863,-247.50980392156862,-267.4901960784314,-16.58,2.85,-22.46
2479.0,97.50980392156863,-263.5098039215686,-190.49019607843138,-21.2,-5.61,-21.83
2479.05,129.50980392156862,313.0,-52.490196078431374,-25.93,-6.38,-24.0
2479.1,145.50980392156862,-263.5098039215686,-67.49019607843137,-27.05,1.42,-30.02
2479.15,65.50980392156863,-296.5098039215686,-160.49019607843138,-29.78,1.38,-32.4
2479.2,129.50980392156862,-296.5098039215686,-113.49019607843137,-23.97,1.28,-25.47
2479.25,129.50980392156862,-280.5098039215686,-160.49019607843138,-13.26,-8.83,-17.07
2479.3,161.50980392156862,-280.5098039215686,-144.49019607843138,-9.16,-18.98,-13.92
2479.35,65.50980392156863,281.0,-83.49019607843137,-12.8,-14.29,-20.05
2479.4,34.509803921568626,-296.5098039215686,-175.49019607843138,-27.26,5.34,-28.69
2479.45,49.509803921568626,-296.5098039215686,-175.49019607843138,-22.99,16.57,-33.7
2479.5,193.50980392156862,-312.5098039215686,-83.49019607843137,-19.03,24.31,-39.19
2479.55,161.50980392156862,297.0,-83.49019607843137,3.22,29.77,-47.84
2479.6,65.50980392156863,281.0,-206.49019607843138,-4.23,21.05,-42.34
2479.65,-236.49019607843138,-198.50980392156862,-221.49019607843138,-20.05,7.16,-29.39
2479.7,263.01960784313724,-231.50980392156862,-21.49019607843137,-23.34,-27.9,-30.62
2479.75,2.5098039215686274,-29.0,239.50980392156862,-57.57,8.56,-38.18
2479.8,97.50980392156863,264.0,116.50980392156863,-28.69,62.63,-56.1
2479.85,-172.49019607843138,281.0,82.01960784313725,-32.65,32.95,-50.57
2479.9,-29.49019607843137,101.0,132.50980392156862,-49.8,2.92,-35.94
2479.95,65.50980392156863,52.0,178.50980392156862,-25.61,10.59,-19.94
2480.0,81.50980392156863,183.0,-298.4901960784314,-8.64,11.6,-8.92
2480.05,113.50980392156863,133.0,-283.4901960784314,-1.71,-0.32,5.39
2480.1,97.50980392156863,101.0,-83.49019607843137,9.13,-9.7,12.77
2480.15,-29.49019607843137,183.0,-129.49019607843138,-17.35,8.84,4.83
2480.2,-29.49019607843137,68.0,-252.49019607843138,-10.32,40.72,-0.59
2480.25,177.50980392156862,117.0,298.01960784313724,-35.69,43.87,7.7
2480.3,240.50980392156862,35.0,-283.4901960784314,67.83,0.23,71.54
2480.35,145.50980392156862,-138.01960784313727,282.01960784313724,59.67,5.97,54.98
2480.4,247.01960784313727,-29.0,267.01960784313724,32.44,-30.04,54.67
2480.45,-61.490196078431374,-198.50980392156862,209.50980392156862,20.68,-65.04,54.56
2480.5,177.50980392156862,-100.50980392156863,163.50980392156862,37.69,-51.42,28.14
2480.55,65.50980392156863,-280.5098039215686,-113.49019607843137,23.1,-16.42,6.12
2480.6,-45.490196078431374,-231.50980392156862,-160.49019607843138,-1.64,-13.97,-7.97
2480.65,81.50980392156863,-263.5098039215686,132.50980392156862,-17.46,-20.8,-11.54
2480.7,65.50980392156863,-312.5098039215686,86.50980392156863,-14.03,-14.6,-9.2
2480.75,81.50980392156863,313.0,-129.49019607843138,1.05,-8.86,-9.09
2480.8,113.50980392156863,-280.5098039215686,-190.49019607843138,2.69,-2.35,-10.28
2480.85,65.50980392156863,-247.50980392156862,-144.49019607843138,0.24,-3.02,-14.8
2480.9,2.5098039215686274,-312.5098039215686,-52.490196078431374,-6.78,3.8,-26.35
2480.95,2.5098039215686274,297.0,-67.49019607843137,-9.72,20.7,-54.66
2481.0,-29.49019607843137,232.0,-129.49019607843138,-12.1,30.47,-95.54
2481.05,-108.49019607843137,264.0,-175.49019607843138,-44.86,36.8,-124.87
2481.1,231.01960784313727,313.0,-98.49019607843137,-98.41,24.66,-115.84
2481.15,-204.49019607843138,-94.0,270.5098039215686,-190.74,27.21,-135.83
2481.2,-29.49019607843137,-192.0,132.50980392156862,-132.12,41.0,-214.54
2481.25,-29.49019607843137,35.0,9.509803921568627,-138.98,51.78,-215.66
2481.3,-140.49019607843138,-78.0,-36.490196078431374,-239.99,33.58,-200.44
2481.35,-252.49019607843138,68.0,301.5098039215686,-253.99,7.05,-162.53
2481.4,-236.49019607843138,166.0,-310.0,-129.49,-20.8,-106.46
2481.45,-252.49019607843138,-263.5098039215686,86.50980392156863,26.0,-36.3,-73.32
2481.5,-188.49019607843138,-149.50980392156862,-21.49019607843137,44.38,-37.18,-47.45
2481.55,-236.49019607843138,313.0,24.50980392156863,-32.44,-18.52,-32.12
2481.6,-252.49019607843138,117.0,-6.490196078431373,-58.9,-5.54,-8.92
2481.65,-188.49019607843138,150.0,-67.49019607843137,24.11,-25.35,-5.45
2481.7,-77.49019607843137,232.0,-175.49019607843138,62.09,-37.07,-32.96
2481.75,2.5098039215686274,133.0,-252.49019607843138,66.01,-43.34,-65.93
2481.8,-45.490196078431374,133.0,-206.49019607843138,71.22,-2.7,-50.04
2481.85,25.019607843137255,297.0,236.01960784313727,41.86,27.28,46.16
2481.9,-236.49019607843138,-296.5098039215686,-83.49019607843137,132.47,52.94,82.98
2481.95,311.01960784313724,-296.5098039215686,-221.49019607843138,78.4,94.2,91.31
2482.0,216.01960784313727,-247.50980392156862,9.509803921568627,15.85,104.7,119.38
2482.05,231.01960784313727,297.0,209.50980392156862,-22.74,105.33,144.79
2482.1,231.01960784313727,-149.50980392156862,193.50980392156862,-40.94,82.86,173.32
2482.15,263.01960784313724,-165.50980392156862,286.5098039215686,-1.67,61.65,190.64
2482.2,311.01960784313724,-51.509803921568626,147.50980392156862,-22.78,52.52,185.01
2482.25,-267.4901960784314,-133.50980392156862,132.50980392156862,-42.48,43.31,179.41
2482.3,-156.49019607843138,-149.50980392156862,24.50980392156863,-20.54,34.32,165.48
2482.35,49.509803921568626,-100.50980392156863,-98.49019607843137,-0.2,39.46,143.15
2482.4,81.50980392156863,-84.50980392156863,-206.49019607843138,1.64,33.48,114.13
2482.45,177.50980392156862,-116.50980392156863,-237.49019607843138,-9.02,19.37,92.85
2482.5,177.50980392156862,-198.50980392156862,-252.49019607843138,59.15,3.34,88.27
2482.55,-36.0,-149.50980392156862,282.01960784313724,87.6,26.2,83.26
2482.6,-20.0,-231.50980392156862,206.01960784313727,19.49,48.74,73.5
2482.65,-52.0,166.0,-160.49019607843138,20.3,51.78,51.31
2482.7,122.0,248.0,-129.49019607843138,28.14,51.54,25.3
2482.75,281.0,248.0,-98.49019607843137,12.67,51.54,11.16
2482.8,-313.5098039215686,248.0,-144.49019607843138,-0.38,33.37,-5.0
2482.85,-266.5098039215686,248.0,-144.49019607843138,19.18,16.12,-14.41
2482.9,-202.50980392156862,313.0,-206.49019607843138,67.58,9.68,-27.4
2482.95,-250.50980392156862,264.0,-36.490196078431374,17.57,4.32,-31.46
2483.0,249.0,183.0,-67.49019607843137,-16.76,8.59,-27.15
2483.05,281.0,183.0,-52.490196078431374,-12.28,27.46,10.29
2483.1,249.0,-247.50980392156862,-283.4901960784314,-39.05,54.09,65.69
2483.15,297.0,-263.5098039215686,-313.4901960784314,-97.08,68.86,92.75
2483.2,138.0,-263.5098039215686,-283.4901960784314,-104.01,55.0,98.21
2483.25,-20.0,-198.50980392156862,-160.49019607843138,-18.93,83.84,83.16
2483.3,-313.5098039215686,264.0,-160.49019607843138,-47.87,89.62,83.47
2483.35,-59.509803921568626,-231.50980392156862,-298.4901960784314,-14.8,79.92,92.26
2483.4,147.49019607843138,-280.5098039215686,39.509803921568626,65.17,81.08,106.54
2483.45,274.4901960784314,-84.50980392156863,116.50980392156863,84.21,93.92,119.56
2483.5,-241.01960784313727,-100.50980392156863,147.50980392156862,-105.41,76.25,120.61
2483.55,-273.01960784313724,117.0,27.0,314.36,-32.94,109.02
2483.6,242.49019607843138,-45.0,-92.50980392156863,253.01,-128.0,26.6
2483.65,51.490196078431374,3.0,258.0,-309.78,-174.73,-72.51
2483.7,-154.50980392156862,-296.5098039215686,-230.50980392156862,288.71,-196.64,-148.92
2483.75,265.0,-51.509803921568626,58.0,-286.54,-229.15,-208.8
2483.8,74.0,-253.01960784313727,150.0,-256.47,-238.11,-225.57
2483.85,-227.0,275.4901960784314,-203.0,-46.51,-266.25,-188.15
2483.9,240.50980392156862,-241.52941176470588,-141.0,-13.78,-277.42,-117.0
2483.95,-77.49019607843137,171.98039215686273,-172.0,44.06,-262.96,-48.54
2484.0,-29.49019607843137,138.98039215686273,-310.0,88.62,-234.72,-10.74
2484.05,81.50980392156863,-220.01960784313727,116.50980392156863,147.49,-176.9,18.13
2484.1,2.5098039215686274,-236.01960784313727,163.50980392156862,105.59,-121.07,19.53
2484.15,81.50980392156863,46.490196078431374,316.5098039215686,53.48,-82.92,21.8
2484.2,34.509803921568626,79.49019607843137,286.5098039215686,59.95,-59.89,37.1
2484.25,145.50980392156862,144.49019607843138,209.50980392156862,56.7,-45.58,48.23
2484.3,129.50980392156862,111.49019607843137,193.50980392156862,27.54,-39.77,55.44
2484.35,49.509803921568626,193.49019607843138,101.50980392156863,-12.38,-69.38,69.82
2484.4,97.50980392156863,193.49019607843138,178.50980392156862,-29.81,-93.25,54.18
2484.45,193.50980392156862,111.49019607843137,101.50980392156863,33.35,-90.03,56.28
2484.5,208.50980392156862,-286.01960784313724,70.50980392156863,56.17,-85.86,75.98
2484.55,288.5098039215686,177.49019607843138,193.50980392156862,61.07,-73.93,80.71
2484.6,-243.0,177.49019607843138,147.50980392156862,41.86,-63.95,85.75
2484.65,-275.0,275.4901960784314,-264.0,36.26,-42.88,91.31
2484.7,-306.0,226.49019607843138,301.5098039215686,44.13,-15.13,100.48
2484.75,224.50980392156862,307.4901960784314,147.50980392156862,-43.53,-12.08,103.6
2484.8,-243.0,79.49019607843137,270.5098039215686,-124.17,-14.92,103.81
2484.85,-195.0,-2.5098039215686274,316.5098039215686,-176.29,-32.49,79.45
2484.9,-179.0,-100.50980392156863,-310.0,-157.14,-60.35,42.52
2484.95,27.0,-269.01960784313724,316.5098039215686,-73.6,-60.98,38.85
2485.0,58.0,-8.019607843137255,-233.0,-77.83,-76.83,44.66
2485.05,122.0,242.49019607843138,43.0,-16.27,-99.72,24.64
2485.1,265.0,209.49019607843138,27.0,-23.65,-66.68,20.44
2485.15,249.0,-302.01960784313724,119.0,-5.66,-52.68,19.81
2485.2,233.0,-318.01960784313724,12.0,18.27,-73.09,19.46
2485.25,265.0,258.4901960784314,-292.5098039215686,8.5,-79.04,-0.38
2485.3,265.0,62.490196078431374,119.0,-35.83,-55.9,-2.23
2485.35,201.0,291.4901960784314,-110.0,-7.73,-53.84,-8.78
2485.4,297.0,-318.01960784313724,-126.0,0.45,-56.36,-3.18
2485.45,-313.5098039215686,-286.01960784313724,27.0,4.83,-47.54,-2.97
2485.5,249.0,226.49019607843138,-49.0,-6.05,-29.02,-6.29
2485.55,201.0,242.49019607843138,-79.0,-7.06,-3.82,-8.78
2485.6,186.0,275.4901960784314,-80.0,1.4,21.12,-9.9
2485.65,170.0,-302.01960784313724,-156.0,-19.84,51.64,-24.11
2485.7,170.0,-204.01960784313727,-18.0,-15.53,65.15,-25.68
2485.75,-4.0,-220.01960784313727,-33.0,17.67,36.56,-16.76
2485.8,27.0,291.4901960784314,73.0,-6.36,54.58,-4.82
2485.85,74.0,242.49019607843138,-80.0,0.84,76.21,9.48
2485.9,-4.0,-318.01960784313724,-110.0,14.77,60.15,13.44
2485.95,90.0,-318.01960784313724,43.0,9.59,54.23,10.64
2486.0,122.0,193.49019607843138,-126.0,2.06,43.77,-0.2
2486.05,170.0,177.49019607843138,-79.0,13.12,24.38,-1.04
2486.1,170.0,275.4901960784314,12.0,-20.75,14.93,2.45
2486.15,138.0,242.49019607843138,-79.0,8.54,5.93,9.03
2486.2,170.0,-253.01960784313727,-95.0,-9.37,-2.04,13.54
2486.25,217.0,258.4901960784314,-156.0,6.82,-20.76,15.26
2486.3,249.0,-318.01960784313724,-64.0,-12.94,-34.73,24.11
2486.35,138.0,160.49019607843138,-233.0,-18.54,-70.25,22.96
2486.4,-234.50980392156862,-318.01960784313724,-49.0,-6.26,-87.4,3.95
2486.45,-202.50980392156862,-122.01960784313725,58.0,-13.22,-93.6,18.97
2486.5,217.0,-204.01960784313727,120.0,-2.34,-100.32,18.97
2486.55,186.0,209.49019607843138,120.0,5.7,-82.29,3.53
2486.6,217.0,193.49019607843138,181.0,2.13,-54.43,5.77
2486.65,170.0,226.49019607843138,73.0,7.14,-41.97,9.31
2486.7,186.0,226.49019607843138,104.0,7.59,-32.03,6.02
2486.75,217.0,193.49019607843138,-18.0,-7.97,-26.15,0.1
2486.8,249.0,144.49019607843138,-49.0,-0.24,-23.25,-6.36
2486.85,281.0,242.49019607843138,-64.0,-12.31,-10.58,-7.66
2486.9,265.0,258.4901960784314,-95.0,-1.36,-5.64,-4.3
2486.95,265.0,307.4901960784314,-126.0,7.56,0.82,-4.37
2487.0,265.0,242.49019607843138,-95.0,10.08,9.92,-8.08
2487.05,281.0,275.4901960784314,-172.0,29.5,39.85,-7.06
2487.1,138.0,242.49019607843138,-279.0,24.53,48.42,-8.99
2487.15,233.0,-318.01960784313724,-156.0,33.63,57.8,-16.9
2487.2,265.0,-285.01960784313724,-141.0,20.33,68.65,-19.07
2487.25,170.0,-138.01960784313727,-172.0,12.39,62.98,-15.46
2487.3,170.0,258.4901960784314,-49.0,20.72,35.51,-10.91
2487.35,201.0,177.49019607843138,-33.0,48.51,47.27,-6.26
2487.4,122.0,-318.01960784313724,-172.0,2.62,64.7,-5.63
2487.45,42.0,258.4901960784314,-126.0,-27.54,52.03,-0.83
2487.5,106.0,128.49019607843138,-126.0,-28.52,37.89,-1.85
2487.55,186.0,160.49019607843138,-126.0,13.72,23.61,3.6
2487.6,281.0,-285.01960784313724,-126.0,-11.61,8.24,2.03
2487.65,233.0,258.4901960784314,-141.0,-12.42,-5.68,3.64
2487.7,201.0,275.4901960784314,-187.0,-2.23,-14.64,8.68
2487.75,249.0,307.4901960784314,-203.0,-3.88,-16.25,13.26
2487.8,217.0,226.49019607843138,-156.0,0.56,-18.84,19.74
2487.85,249.0,291.4901960784314,-141.0,-12.31,-19.68,33.11
2487.9,233.0,242.49019607843138,-172.0,-28.62,-28.6,43.47
2487.95,-282.5098039215686,193.49019607843138,-156.0,-18.02,-47.47,23.2
2488.0,-139.50980392156862,-204.01960784313727,-95.0,-12.38,-47.43,14.56
2488.05,-313.5098039215686,-204.01960784313727,-49.0,-9.72,-58.14,22.36
2488.1,201.0,291.4901960784314,-18.0,-34.96,-63.53,14.38
2488.15,233.0,79.49019607843137,12.0,-9.76,-51.84,4.86
2488.2,249.0,177.49019607843138,-33.0,-4.96,-33.78,0.1
2488.25,-218.50980392156862,193.49019607843138,43.0,-9.02,-13.94,4.44
2488.3,-218.50980392156862,258.4901960784314,119.0,-23.09,-9.81,11.3
2488.35,297.0,226.49019607843138,89.0,-39.19,-17.3,2.31
2488.4,-250.50980392156862,160.49019607843138,58.0,-21.87,-26.01,-5.14
2488.45,-250.50980392156862,226.49019607843138,-33.0,-10.42,-21.29,-12.94
