rel_time,acc_x,acc_y,acc_z,gyro_x,gyro_y,gyro_z
1.0,58.0,286.5098039215686,267.01960784313724,4.25,-14.57,-40.8
1.05,74.0,-307.0,236.01960784313727,-28.47,-16.56,-42.76
1.1,-13.490196078431373,183.0,-267.4901960784314,-10.9,-25.56,-30.79
1.15,-234.50980392156862,-154.49019607843138,159.01960784313727,-13.56,-21.43,-30.83
1.2,-299.4901960784314,-2.5098039215686274,-252.49019607843138,-12.86,-13.9,-13.85
1.25,2.5098039215686274,-258.0,-175.49019607843138,-14.82,-7.36,-2.51
1.3,147.49019607843138,178.01960784313727,221.01960784313727,-11.42,-8.34,-5.59
1.35,120.01960784313725,-2.5098039215686274,-255.98039215686273,-15.73,-2.56,-3.88
1.4,-179.0,286.5098039215686,-52.490196078431374,-20.52,0.19,9.83
1.45,-123.50980392156863,-301.4901960784314,159.01960784313727,-15.41,3.69,23.55
1.5,-77.49019607843137,-116.50980392156863,-267.4901960784314,-10.27,10.34,35.35
1.55,256.5098039215686,-307.0,282.01960784313724,-14.43,11.95,31.71
1.6,-27.50980392156863,308.01960784313724,175.01960784313727,-11.18,12.65,32.2
1.65,18.50980392156863,-67.50980392156863,-313.4901960784314,-16.18,12.58,33.46
1.7,240.50980392156862,-62.0,-298.4901960784314,-8.94,6.77,33.95
1.75,194.49019607843138,-285.4901960784314,190.01960784313727,-14.43,-2.42,10.36
1.8,288.5098039215686,-100.50980392156863,-313.4901960784314,-19.12,-4.07,0.84
1.85,256.5098039215686,117.0,-298.4901960784314,-21.33,-4.24,1.29
1.9,178.49019607843138,-170.49019607843138,175.01960784313727,-14.85,-9.49,-4.33
1.95,208.50980392156862,-67.50980392156863,-283.4901960784314,-6.63,-14.39,-19.63
2.0,240.50980392156862,52.0,313.01960784313724,2.08,-21.99,-37.51
2.05,115.49019607843137,-138.49019607843138,82.01960784313725,-9.29,-20.8,-40.98
2.1,65.50980392156863,62.490196078431374,267.01960784313724,-14.43,-16.74,-30.34
2.15,177.50980392156862,-45.0,-313.4901960784314,-15.8,-18.31,-17.95
2.2,-11.509803921568627,-285.4901960784314,252.01960784313727,-41.73,-15.41,-39.26
2.25,113.50980392156863,183.0,-98.49019607843137,-60.95,-25.0,-28.41
2.3,-259.0,-307.0,116.50980392156863,-97.73,-28.22,-78.29
2.35,-211.0,303.5098039215686,193.50980392156862,-73.13,-48.94,-109.47
2.4,-275.0,-274.0,224.50980392156862,-75.82,-56.39,-139.92
2.45,224.50980392156862,-274.0,132.50980392156862,-60.32,-67.7,-169.36
2.5,208.50980392156862,-209.0,101.50980392156863,-39.07,-77.04,-171.28
2.55,2.5098039215686274,84.0,-52.490196078431374,-41.1,-81.52,-146.68
2.6,-108.49019607843137,199.0,-175.49019607843138,-1.17,-48.17,-89.42
2.65,295.01960784313724,-84.50980392156863,159.01960784313727,15.55,-28.22,-50.08
2.7,-172.49019607843138,232.0,252.01960784313727,5.02,-20.76,-38.67
2.75,-13.490196078431373,-143.0,313.01960784313724,5.47,-18.87,-34.08
2.8,-267.4901960784314,-165.50980392156862,-113.49019607843137,-3.72,-18.66,-29.88
2.85,301.52941176470586,-116.50980392156863,-144.49019607843138,-1.94,-15.48,-29.64
2.9,-290.0,-317.4901960784314,82.01960784313725,-1.13,-14.71,-25.75
2.95,-140.49019607843138,248.0,-206.49019607843138,-6.28,-1.76,-24.42
3.0,-6.980392156862745,232.0,-283.4901960784314,-7.64,0.33,-30.62
3.05,90.0,243.01960784313727,252.01960784313727,5.47,-7.88,-34.05
3.1,-77.49019607843137,297.0,24.50980392156863,-7.33,-11.63,-44.55
3.15,184.01960784313727,52.0,-37.490196078431374,0.19,-25.59,-44.34
3.2,297.0,210.01960784313727,-283.4901960784314,-2.15,-26.15,-43.39
3.25,-220.49019607843138,-247.50980392156862,-36.490196078431374,46.98,-30.77,-37.02
3.3,311.01960784313724,-78.0,-36.490196078431374,47.54,-18.7,-29.36
3.35,201.0,243.01960784313727,-298.4901960784314,-32.18,-5.99,-25.58
3.4,-315.4901960784314,-263.5098039215686,116.50980392156863,-3.72,-22.51,-32.96
3.45,-283.4901960784314,237.50980392156862,-6.490196078431373,-72.74,-26.19,-52.98
3.5,42.0,-132.98039215686273,270.5098039215686,20.42,-104.76,-2.69
3.55,-86.98039215686275,-296.5098039215686,-138.50980392156862,-305.42,30.96,24.88
3.6,-315.4901960784314,-258.47058823529414,-193.5686274509804,-36.62,-94.47,101.78
3.65,-223.47058823529412,-307.0,-40.98039215686274,-23.5,-91.01,-10.84
3.7,57.01960784313726,291.4901960784314,-83.49019607843137,-33.51,-46.31,2.97
3.75,231.01960784313727,-225.0,73.0,-14.15,-41.24,12.81
3.8,256.5098039215686,-72.49019607843137,-221.49019607843138,-1.8,-30.77,-8.5
3.85,57.01960784313726,215.0,-295.0,16.64,-27.8,-6.68
3.9,295.01960784313724,-78.0,301.5098039215686,0.61,-10.54,2.73
3.95,-315.4901960784314,-176.0,-249.0,-7.22,-6.48,39.27
4.0,-299.4901960784314,-225.0,-310.0,-13.63,-2.0,51.17
4.05,-315.4901960784314,-111.0,316.5098039215686,-18.21,-10.37,28.73
4.1,-315.4901960784314,-29.0,286.5098039215686,-38.86,0.79,-9.48
4.15,200.01960784313727,-209.0,-80.0,2.43,-22.9,14.77
4.2,-315.4901960784314,68.0,316.5098039215686,-5.3,0.02,-2.58
4.25,311.01960784313724,52.0,-187.0,7.05,3.83,-21.9
4.3,216.01960784313727,19.0,-203.0,-13.38,8.17,-43.15
4.35,-306.0,-187.49019607843138,193.50980392156862,-15.31,-1.44,-49.55
4.4,-220.49019607843138,-13.0,-113.49019607843137,17.86,-40.15,-18.23
4.45,269.52941176470586,209.49019607843138,-141.0,20.38,-42.39,7.03
4.5,88.01960784313725,-111.0,-307.5098039215686,7.15,-18.42,17.67
4.55,-195.0,31.019607843137255,-218.0,1.73,3.97,15.75
4.6,-45.490196078431374,270.5098039215686,-160.49019607843138,8.73,-14.78,19.32
4.65,238.52941176470588,275.4901960784314,255.50980392156862,73.13,-44.42,61.21
4.7,285.52941176470586,-133.50980392156862,304.0,62.03,-1.69,35.56
4.75,97.50980392156863,-154.49019607843138,-64.0,21.43,22.03,40.07
4.8,-100.0,14.019607843137255,116.50980392156863,-34.28,48.56,18.58
4.85,-133.98039215686273,111.49019607843137,-264.0,-45.02,26.83,25.44
4.9,317.52941176470586,-67.50980392156863,227.0,-19.86,-9.11,53.97
4.95,-188.49019607843138,-225.0,-126.0,-28.82,29.03,28.77
5.0,-52.0,-252.49019607843138,132.50980392156862,-26.89,12.16,32.16
5.05,-267.4901960784314,-51.509803921568626,-98.49019607843137,-26.93,-14.46,26.21
5.1,174.52941176470588,-307.52941176470586,-141.0,-7.43,-20.94,23.1
5.15,104.01960784313725,183.0,212.0,-22.27,8.49,8.85
5.2,-131.0,227.01960784313727,255.50980392156862,1.45,-2.63,12.98
5.25,-299.4901960784314,232.0,-21.49019607843137,-15.2,7.3,19.04
5.3,285.52941176470586,269.98039215686276,120.0,-7.61,6.28,10.04
5.35,136.01960784313727,35.0,227.0,-7.99,0.75,4.06
5.4,-204.49019607843138,-312.5098039215686,70.50980392156863,0.43,2.15,-7.13
5.45,231.01960784313727,232.0,-95.0,10.23,-11.14,-4.37
5.5,-124.49019607843137,-149.50980392156862,-156.0,-4.07,-27.69,-1.74
5.55,311.01960784313724,166.0,-187.0,-1.45,-1.13,-14.76
5.6,263.01960784313724,297.0,-172.0,-18.0,25.67,-8.46
5.65,311.01960784313724,-280.5098039215686,-79.0,15.8,-16.39,8.68
5.7,-252.49019607843138,-312.5098039215686,316.5098039215686,6.1,-12.82,8.75
5.75,247.01960784313727,183.0,-264.0,1.48,-3.37,10.81
5.8,247.01960784313727,117.0,-126.0,-6.21,5.06,10.11
5.85,-299.4901960784314,313.0,-156.0,-6.31,3.1,4.44
5.9,-283.4901960784314,313.0,-203.0,3.83,3.38,6.54
5.95,295.01960784313724,215.0,-218.0,-4.14,16.05,-3.39
6.0,279.01960784313724,281.0,-203.0,3.55,8.49,-3.84
6.05,-315.4901960784314,297.0,-218.0,6.17,-6.83,-0.62
6.1,-299.4901960784314,232.0,-218.0,0.99,-6.73,2.55
6.15,-315.4901960784314,281.0,-203.0,6.94,-1.37,4.58
6.2,311.01960784313724,297.0,-249.0,10.97,28.37,0.73
6.25,247.01960784313727,-247.50980392156862,-249.0,14.15,42.47,-26.91
6.3,295.01960784313724,-182.50980392156862,-172.0,12.86,-2.88,-41.29
6.35,263.01960784313724,150.0,-295.0,-6.63,-19.99,-42.03
6.4,-252.49019607843138,183.0,-249.0,25.46,-49.74,-63.62
6.45,-299.4901960784314,281.0,239.50980392156862,10.13,-40.05,-83.33
6.5,263.01960784313724,84.0,-218.0,-5.02,-10.09,-133.38
6.55,231.01960784313727,133.0,-79.0,-8.24,-54.47,-223.22
6.6,152.01960784313727,232.0,-280.0,-63.75,-72.84,-144.65
6.65,-143.47058823529412,-72.49019607843137,196.0,57.38,-5.05,33.14
6.7,27.0,259.01960784313724,252.01960784313727,-22.2,52.17,81.9
6.75,-179.0,-111.0,-76.50980392156863,-12.82,45.8,143.6
6.8,104.01960784313725,-290.0,58.0,6.52,28.05,120.82
6.85,311.01960784313724,-45.0,-218.0,-28.12,39.92,73.15
6.9,-70.98039215686275,-165.50980392156862,-203.0,7.99,-7.01,66.46
6.95,168.01960784313727,-67.50980392156863,301.5098039215686,-16.11,-28.25,49.03
7.0,120.01960784313725,264.0,-295.0,-2.39,-19.85,42.94
7.05,311.01960784313724,-105.49019607843137,89.0,-18.7,10.1,38.5
7.1,311.01960784313724,117.0,-95.0,-13.1,17.66,18.55
7.15,216.01960784313727,-192.0,-18.0,-16.85,24.24,0.24
7.2,279.01960784313724,-312.5098039215686,-203.0,4.95,-10.68,-6.57
7.25,-315.4901960784314,297.0,-203.0,15.17,-22.13,10.04
7.3,-315.4901960784314,297.0,286.5098039215686,-0.78,-10.51,3.99
7.35,216.01960784313727,84.0,-126.0,7.33,-1.86,17.18
7.4,311.01960784313724,215.0,-126.0,1.1,5.65,13.65
7.45,216.01960784313727,101.0,-95.0,-2.43,10.03,9.03
7.5,-299.4901960784314,-296.5098039215686,-79.0,-2.01,-1.44,12.6
7.55,-283.4901960784314,-312.5098039215686,-233.0,17.72,-11.1,20.51
7.6,311.01960784313724,3.0,-187.0,11.98,30.68,-7.55
7.65,-315.4901960784314,62.490196078431374,-95.0,10.51,15.45,-17.07
7.7,-315.4901960784314,-296.5098039215686,-110.0,22.48,-45.75,-38.46
7.75,279.01960784313724,313.0,-249.0,-2.43,-33.92,-41.15
7.8,-299.4901960784314,150.0,-126.0,18.95,-30.53,-88.68
7.85,263.01960784313724,199.0,-172.0,12.44,-54.5,-129.98
7.9,263.01960784313724,133.0,-141.0,-17.51,-9.95,-191.83
7.95,200.01960784313727,68.0,-33.0,-12.79,-48.17,-232.11
8.0,152.01960784313727,3.0,-203.0,7.15,-20.34,-20.99
8.05,200.01960784313727,139.50980392156862,166.0,81.28,-2.84,95.79
8.1,81.50980392156863,74.50980392156863,-141.0,33.79,39.53,141.64
8.15,-93.49019607843137,-62.0,61.490196078431374,-12.79,65.5,117.07
8.2,-124.49019607843137,-225.0,243.0,-42.19,47.65,113.19
8.25,129.50980392156862,172.50980392156862,320.0,-35.71,53.78,83.12
8.3,104.01960784313725,-160.0,73.0,-22.76,29.59,54.84
8.35,-220.49019607843138,90.50980392156863,258.0,-12.16,-3.02,50.08
8.4,-315.4901960784314,-290.0,-64.0,-7.47,-7.92,38.01
8.45,-299.4901960784314,183.0,-279.0,7.82,-7.32,20.79
8.5,247.01960784313727,84.0,-279.0,-1.8,3.27,14.52
8.55,-283.4901960784314,281.0,-33.0,-16.25,2.89,7.66
8.6,-204.49019607843138,-116.50980392156863,-80.0,-18.7,15.14,-15.36
8.65,231.01960784313727,199.0,-110.0,3.72,-10.47,-5.31
8.7,-299.4901960784314,-149.50980392156862,-295.0,11.84,-23.98,10.04
8.75,-315.4901960784314,264.0,-156.0,3.97,-13.17,9.13
8.8,311.01960784313724,281.0,-295.0,-2.92,29.52,2.13
8.85,311.01960784313724,-143.0,289.0,11.11,26.06,1.47
8.9,263.01960784313724,-29.0,43.0,8.62,7.86,9.59
8.95,-252.49019607843138,313.0,-203.0,-1.73,11.71,-28.03
9.0,279.01960784313724,-296.5098039215686,-187.0,8.87,-27.76,-31.91
9.05,311.01960784313724,133.0,-295.0,9.01,-17.09,-62.82
9.1,279.01960784313724,101.0,-141.0,34.77,-57.9,-105.66
9.15,295.01960784313724,183.0,239.50980392156862,20.28,-29.48,-162.04
9.2,247.01960784313727,68.0,-95.0,-9.74,-19.22,-232.81
9.25,136.01960784313727,166.0,-33.0,-15.76,-57.13,-177.41
9.3,-229.98039215686273,-45.0,301.5098039215686,25.42,17.66,101.43
9.35,138.0,-34.98039215686274,-21.49019607843137,-6.87,25.6,148.82
9.4,-108.49019607843137,172.50980392156862,-33.0,-30.64,70.51,102.34
9.45,-140.49019607843138,-127.0,43.0,-23.71,33.83,115.81
9.5,216.01960784313727,3.0,-172.0,-27.21,-1.06,100.76
9.55,200.01960784313727,-84.50980392156863,255.50980392156862,-24.97,10.83,58.03
9.6,88.01960784313725,319.5098039215686,43.0,3.69,-26.29,52.5
9.65,216.01960784313727,-45.0,-172.0,-10.55,-19.99,29.5
9.7,104.01960784313725,139.50980392156862,43.0,-1.45,-0.85,16.48
9.75,-315.4901960784314,-296.5098039215686,-187.0,-11.11,5.48,16.94
9.8,-299.4901960784314,183.0,-233.0,1.55,-8.23,3.11
9.85,-315.4901960784314,248.0,-264.0,0.64,-13.62,0.77
9.9,311.01960784313724,-296.5098039215686,-110.0,-5.26,-10.79,-4.19
9.95,-267.4901960784314,-51.509803921568626,-218.0,1.48,-5.61,4.93
10.0,-299.4901960784314,133.0,-95.0,4.77,13.32,8.15
10.05,247.01960784313727,-62.0,58.0,8.87,5.97,-9.72
10.1,-299.4901960784314,-280.5098039215686,-80.0,11.07,-10.37,1.96
10.15,-299.4901960784314,281.0,-295.0,0.15,21.54,-23.79
10.2,279.01960784313724,232.0,-64.0,0.36,5.09,-19.91
10.25,311.01960784313724,232.0,-233.0,2.32,-4.21,-26.8
10.3,263.01960784313724,117.0,-203.0,48.17,-67.73,-81.19
10.35,295.01960784313724,281.0,-218.0,25.77,-46.24,-124.1
10.4,263.01960784313724,166.0,-79.0,-5.79,6.11,-193.16
10.45,231.01960784313727,248.0,-18.0,-10.09,-57.23,-221.26
10.5,184.01960784313727,199.0,-264.0,-56.82,7.61,-5.45
10.55,-77.49019607843137,25.50980392156863,-246.50980392156862,9.71,28.93,190.08
10.6,113.50980392156863,58.509803921568626,-33.0,-23.36,89.72,133.98
10.65,311.01960784313724,-94.0,-49.0,-28.54,16.61,103.98
10.7,216.01960784313727,-258.0,43.0,-21.99,-29.9,97.72
10.75,136.01960784313727,19.0,27.0,-5.26,-4.8,53.65
10.8,311.01960784313724,243.01960784313727,273.0,-13.07,7.33,34.68
10.85,231.01960784313727,-307.0,73.0,-5.75,-0.6,14.49
10.9,-315.4901960784314,52.0,-141.0,0.64,-20.97,11.58
10.95,-315.4901960784314,313.0,-187.0,-1.34,-17.16,14.98
11.0,-283.4901960784314,-231.50980392156862,-141.0,-5.93,-7.32,3.95
11.05,-299.4901960784314,-247.50980392156862,-126.0,-11.95,4.39,-3.21
11.1,295.01960784313724,199.0,-79.0,1.13,-9.39,2.94
11.15,247.01960784313727,-29.0,-64.0,8.59,9.85,5.42
11.2,-315.4901960784314,-247.50980392156862,-49.0,-1.9,37.33,-1.32
11.25,263.01960784313724,19.0,120.0,11.32,21.23,-17.04
11.3,311.01960784313724,-296.5098039215686,-156.0,8.59,-6.17,1.29
11.35,-315.4901960784314,-280.5098039215686,-141.0,-1.2,15.91,-1.22
11.4,311.01960784313724,313.0,-79.0,6.38,-7.39,-21.24
11.45,295.01960784313724,-312.5098039215686,-233.0,13.77,-32.87,-5.91
11.5,-267.4901960784314,232.0,-249.0,36.52,-53.31,-90.12
11.55,247.01960784313727,-133.50980392156862,-64.0,36.38,-71.93,-94.28
11.6,311.01960784313724,133.0,-264.0,3.83,20.7,-157.88
11.65,216.01960784313727,117.0,104.0,-7.71,-34.27,-215.1
11.7,152.01960784313727,215.0,-64.0,-62.17,-20.13,-113.46
11.75,41.01960784313726,-143.0,-295.0,7.61,15.73,142.76
11.8,-20.0,308.01960784313724,-156.0,32.35,63.58,170.87
11.85,231.01960784313727,-274.0,-49.0,-37.99,92.66,99.57
11.9,-54.98039215686274,281.0,43.0,-5.96,-26.78,108.39
11.95,-283.4901960784314,52.0,-21.49019607843137,-13.1,11.92,85.92
12.0,-315.4901960784314,-312.5098039215686,-110.0,-12.96,1.91,38.88
12.05,200.01960784313727,-13.0,-126.0,-20.07,-11.91,33.98
12.1,311.01960784313724,248.0,-310.0,-6.49,-12.05,25.37
12.15,-299.4901960784314,248.0,-187.0,-12.02,17.97,2.17
12.2,279.01960784313724,281.0,27.0,-14.47,13.95,-13.33
12.25,295.01960784313724,-51.509803921568626,-218.0,7.08,-5.85,-6.71
12.3,295.01960784313724,84.0,-80.0,-4.25,4.08,10.39
12.35,-267.4901960784314,313.0,-95.0,-6.0,16.5,4.72
12.4,311.01960784313724,232.0,-95.0,3.58,11.39,10.92
12.45,-299.4901960784314,150.0,-203.0,10.02,7.58,7.94
12.5,-267.4901960784314,199.0,-187.0,10.76,18.74,-3.7
12.55,311.01960784313724,-263.5098039215686,-187.0,5.09,-0.64,-9.13
12.6,-283.4901960784314,-312.5098039215686,-141.0,10.76,-25.31,-8.64
12.65,-299.4901960784314,199.0,-218.0,18.6,-22.41,-32.19
12.7,263.01960784313724,215.0,-187.0,22.13,-34.03,-24.91
12.75,-299.4901960784314,264.0,-187.0,50.69,-69.59,-84.87
12.8,216.01960784313727,-149.50980392156862,-249.0,18.46,-27.76,-91.73
12.85,247.01960784313727,52.0,58.0,-8.24,38.59,-135.55
12.9,184.01960784313727,117.0,73.0,-8.94,-17.82,-164.32
12.95,184.01960784313727,19.0,-279.0,-4.98,-50.83,-187.94
13.0,25.019607843137255,-45.0,-249.0,8.38,33.23,83.44
13.05,-36.0,-138.49019607843138,104.0,2.29,23.47,56.17
13.1,136.01960784313727,-176.0,58.0,17.16,-14.5,46.51
13.15,104.01960784313725,-225.0,-156.0,-3.58,0.33,32.27
13.2,136.01960784313727,-127.0,-18.0,1.45,9.85,32.16
13.25,200.01960784313727,-78.0,-33.0,-14.57,33.65,-6.12
13.3,263.01960784313724,-45.0,12.0,2.04,-6.34,21.77
13.35,247.01960784313727,-127.0,-264.0,0.82,15.63,16.76
13.4,247.01960784313727,-94.0,-64.0,6.8,6.81,10.99
13.45,263.01960784313724,-176.0,-110.0,-5.65,-2.56,2.45
13.5,216.01960784313727,-13.0,-141.0,3.58,-16.28,17.01
13.55,295.01960784313724,-94.0,-156.0,-1.52,-10.37,10.5
13.6,231.01960784313727,-62.0,-80.0,-0.68,-18.63,14.73
13.65,247.01960784313727,3.0,-141.0,-3.93,2.54,6.51
13.7,-315.4901960784314,-258.0,-33.0,-3.83,5.69,10.85
13.75,263.01960784313724,-111.0,-95.0,6.21,12.41,14.17
13.8,247.01960784313727,-62.0,-110.0,-3.23,25.95,3.95
13.85,216.01960784313727,-13.0,-64.0,6.35,45.13,-0.62
13.9,263.01960784313724,-45.0,-80.0,-0.96,93.75,5.11
13.95,136.01960784313727,-78.0,-79.0,1.97,127.14,13.05
14.0,-204.49019607843138,-290.0,-110.0,-23.5,157.69,46.86
14.05,-236.49019607843138,-94.0,-218.0,-25.67,131.09,26.95
14.1,-283.4901960784314,-225.0,-280.0,13.8,90.84,-18.93
14.15,-267.4901960784314,-176.0,101.50980392156863,145.58,27.88,-117.45
14.2,-204.49019607843138,-214.50980392156862,-267.4901960784314,85.59,46.99,62.47
14.25,-101.98039215686275,232.0,-83.49019607843137,-57.27,27.14,254.66
14.3,47.529411764705884,-182.50980392156862,286.5098039215686,213.2,-19.89,-286.25
14.35,142.52941176470588,307.4901960784314,301.5098039215686,256.77,23.68,-296.72
14.4,-260.98039215686276,13.490196078431373,252.01960784313727,188.24,49.05,306.14
14.45,-283.4901960784314,-111.0,132.50980392156862,60.14,69.11,239.85
14.5,-124.49019607843137,254.50980392156862,-6.490196078431373,81.84,46.11,186.37
14.55,161.50980392156862,286.5098039215686,55.509803921568626,63.64,77.37,199.32
14.6,113.50980392156863,205.50980392156862,-160.49019607843138,102.56,14.44,42.77
14.65,216.01960784313727,-72.49019607843137,-126.0,158.56,-18.8,21.98
14.7,208.50980392156862,-29.0,-113.49019607843137,62.49,-1.34,45.11
14.75,129.50980392156862,-225.0,-52.490196078431374,21.33,-19.22,3.15
14.8,256.5098039215686,-94.0,-98.49019607843137,63.47,-29.76,-22.74
14.85,-163.0,-274.0,-206.49019607843138,85.62,-46.0,-41.89
14.9,-275.0,313.0,267.01960784313724,15.62,-37.7,-25.68
14.95,320.5098039215686,-45.0,313.01960784313724,24.16,-10.72,-10.35
15.0,-68.0,-78.0,-267.4901960784314,0.47,22.66,47.6
15.05,288.5098039215686,172.50980392156862,-236.49019607843138,-23.85,37.05,124.07
15.1,304.5098039215686,-307.0,-283.4901960784314,32.81,-0.29,-3.49
15.15,240.50980392156862,-78.0,236.01960784313727,24.3,-7.04,12.74
15.2,-259.0,-307.0,-221.49019607843138,24.76,-10.82,16.62
15.25,320.5098039215686,-143.0,-283.4901960784314,16.43,-9.07,16.2
15.3,-290.0,-209.0,-298.4901960784314,12.58,-9.74,23.41
15.35,-275.0,-225.0,-298.4901960784314,8.1,-3.47,12.88
15.4,320.5098039215686,-307.0,267.01960784313724,23.39,-1.23,10.32
15.45,240.50980392156862,-274.0,236.01960784313727,35.29,4.64,7.56
15.5,208.50980392156862,-290.0,-313.4901960784314,22.17,2.96,13.37
15.55,256.5098039215686,-274.0,-252.49019607843138,10.41,12.37,14.03
15.6,256.5098039215686,-307.0,-190.49019607843138,9.29,12.13,13.09
15.65,304.5098039215686,-274.0,-236.49019607843138,-7.22,15.77,3.88
15.7,288.5098039215686,319.5098039215686,-267.4901960784314,-5.54,8.87,2.66
15.75,-306.0,-290.0,-252.49019607843138,-21.43,7.54,4.58
15.8,304.5098039215686,-258.0,-267.4901960784314,-16.29,1.98,8.05
15.85,-275.0,-209.0,-298.4901960784314,-3.58,0.33,10.04
15.9,-290.0,-225.0,313.01960784313724,-22.66,5.51,8.75
15.95,-290.0,-274.0,-283.4901960784314,-19.54,8.98,7.24
16.0,304.5098039215686,-225.0,-313.4901960784314,-18.63,13.42,5.84
16.05,-306.0,-241.0,-313.4901960784314,-23.29,11.36,7.31
16.1,-275.0,-176.0,298.01960784313724,-13.59,16.54,33.25
16.15,-275.0,-78.0,298.01960784313724,-29.45,4.85,39.72
16.2,-227.0,-78.0,-298.4901960784314,-33.44,11.78,50.85
16.25,-275.0,101.0,221.01960784313727,-21.05,7.44,62.09
16.3,-227.0,3.0,282.01960784313724,-44.15,41.98,48.96
16.35,208.50980392156862,-209.0,252.01960784313727,-28.29,29.38,12.81
16.4,-227.0,-29.0,282.01960784313724,-0.75,23.33,20.58
16.45,-243.0,3.0,267.01960784313724,-3.76,16.47,19.56
16.5,-179.0,-94.0,-298.4901960784314,-13.1,19.58,15.22
16.55,-243.0,-45.0,-283.4901960784314,-38.76,19.02,56.66
16.6,-163.0,19.0,313.01960784313724,-0.01,3.55,58.17
16.65,-211.0,68.0,298.01960784313724,0.99,-1.51,23.06
16.7,-84.0,117.0,282.01960784313724,-12.19,10.97,-31.6
16.75,-116.0,183.0,-298.4901960784314,-18.21,12.48,6.02
16.8,-20.0,19.0,-298.4901960784314,39.07,-8.13,-28.52
16.85,-52.0,133.0,236.01960784313727,19.12,-2.28,-2.97
16.9,-84.0,-45.0,282.01960784313724,20.03,-1.37,-4.12
16.95,-84.0,84.0,267.01960784313724,8.38,2.15,6.51
17.0,-147.0,3.0,-313.4901960784314,8.41,4.5,23.66
17.05,-131.0,3.0,313.01960784313724,5.05,3.48,50.36
17.1,-116.0,-13.0,252.01960784313727,-19.65,27.11,-0.69
17.15,-179.0,101.0,236.01960784313727,-54.93,37.68,-49.94
17.2,-100.0,3.0,298.01960784313724,-22.45,7.4,3.43
17.25,58.0,117.0,221.01960784313727,-14.68,5.58,-14.8
17.3,-20.0,215.0,236.01960784313727,-10.2,2.57,-4.16
17.35,-4.0,84.0,-313.4901960784314,-14.78,7.09,-0.41
17.4,-20.0,101.0,298.01960784313724,-2.25,4.18,-4.82
17.45,-20.0,183.0,298.01960784313724,-8.8,3.55,-2.86
17.5,-36.0,166.0,298.01960784313724,-4.35,5.48,-0.31
17.55,-20.0,166.0,298.01960784313724,-11.42,6.49,2.31
17.6,-20.0,150.0,282.01960784313724,-10.48,4.04,0.49
17.65,11.0,183.0,282.01960784313724,-8.66,1.0,7.35
17.7,11.0,166.0,282.01960784313724,-7.5,1.49,1.15
17.75,-36.0,183.0,298.01960784313724,3.97,-2.67,7.87
17.8,-20.0,183.0,313.01960784313724,36.34,-22.44,37.24
17.85,27.0,215.0,267.01960784313724,-14.92,15.98,34.72
17.9,-52.0,52.0,267.01960784313724,-18.18,13.98,-35.27
17.95,-36.0,166.0,313.01960784313724,-0.43,-7.88,-9.13
18.0,-36.0,166.0,-313.4901960784314,9.5,-2.35,24.18
18.05,186.0,-296.5098039215686,-298.4901960784314,-19.58,11.74,10.08
18.1,-52.0,166.0,-313.4901960784314,-27.66,8.07,-55.92
18.15,-20.0,199.0,313.01960784313724,27.91,-6.27,14.17
18.2,27.0,183.0,-206.49019607843138,-16.99,11.22,45.22
18.25,27.0,166.0,-298.4901960784314,-19.23,9.78,-6.57
18.3,-36.0,199.0,313.01960784313724,-20.14,8.17,-46.16
18.35,42.0,215.0,-283.4901960784314,25.0,-10.89,-20.54
18.4,27.0,313.0,-313.4901960784314,9.6,-10.79,-0.87
18.45,11.0,215.0,-298.4901960784314,0.08,-6.27,0.49
18.5,27.0,232.0,313.01960784313724,-0.61,-3.05,2.66
18.55,11.0,232.0,298.01960784313724,-8.2,3.48,2.66
18.6,-36.0,183.0,298.01960784313724,-0.47,-0.25,-0.62
18.65,27.0,232.0,-313.4901960784314,-4.04,1.14,-3.74
18.7,-20.0,215.0,-313.4901960784314,-2.53,-3.33,-3.56
18.75,27.0,248.0,-313.4901960784314,3.51,-3.93,-1.15
18.8,27.0,232.0,-298.4901960784314,4.74,-3.89,-1.08
18.85,27.0,248.0,313.01960784313724,2.5,1.07,2.17
18.9,11.0,215.0,298.01960784313724,4.84,2.29,-0.55
18.95,11.0,215.0,313.01960784313724,4.98,-3.37,-4.33
19.0,-20.0,215.0,-313.4901960784314,15.9,-11.35,-13.96
19.05,42.0,215.0,-283.4901960784314,1.66,-15.62,-10.42
19.1,-20.0,166.0,-237.49019607843138,15.17,-22.65,-14.83
19.15,42.0,166.0,-313.4901960784314,9.15,-24.93,-14.52
19.2,-36.0,150.0,313.01960784313724,13.35,-31.16,-9.09
19.25,-52.0,166.0,313.01960784313724,4.81,-35.95,-29.64
19.3,-84.0,101.0,-252.49019607843138,-1.76,-45.26,-39.58
19.35,-131.0,150.0,-267.4901960784314,0.47,-60.8,-58.79
19.4,-227.0,166.0,-206.49019607843138,-8.38,-75.26,-77.73
19.45,-290.0,19.0,-129.49019607843138,-22.1,-73.26,-94.6
19.5,97.50980392156863,215.0,-252.49019607843138,-87.2,-58.53,-131.56
19.55,-188.49019607843138,150.0,-83.49019607843137,-157.02,-64.76,-155.6
19.6,152.01960784313727,-84.50980392156863,24.50980392156863,-180.05,-111.24,-148.57
19.65,104.01960784313725,226.49019607843138,116.50980392156863,-248.02,-150.93,-135.55
19.7,57.01960784313726,-318.01960784313724,116.50980392156863,-227.55,-168.85,-109.37
19.75,295.01960784313724,-204.01960784313727,-52.490196078431374,-213.86,-170.56,-67.75
19.8,-61.490196078431374,-302.01960784313724,-36.490196078431374,-63.89,-91.74,8.85
19.85,34.509803921568626,95.49019607843137,209.50980392156862,-288.03,28.33,64.47
19.9,-61.490196078431374,166.0,252.01960784313727,-77.57,18.64,1.54
19.95,-38.98039215686274,199.0,-144.49019607843138,1.38,-37.49,-15.18
20.0,247.01960784313727,101.0,258.0,-74.81,-31.89,-28.13
20.05,-117.98039215686275,-312.5098039215686,104.0,-108.9,-31.68,-35.38
20.1,-101.98039215686275,-280.5098039215686,120.0,-35.4,-22.83,-54.38
20.15,9.019607843137255,-312.5098039215686,-49.0,-54.89,-6.87,-40.35
20.2,-70.98039215686275,-247.50980392156862,-203.0,-82.75,0.72,-15.99
20.25,136.01960784313727,264.0,-18.0,-90.1,20.63,13.19
20.3,-236.49019607843138,150.0,-3.0,-54.58,43.42,25.55
20.35,18.50980392156863,84.0,-3.0,-11.95,50.56,25.44
20.4,177.50980392156862,19.0,43.0,-4.53,47.13,27.82
20.45,113.50980392156863,84.0,104.0,32.39,24.62,42.28
20.5,2.5098039215686274,297.0,104.0,25.7,24.31,61.53
20.55,-156.49019607843138,-280.5098039215686,73.0,59.23,18.08,84.24
20.6,-77.49019607843137,-198.50980392156862,-95.0,73.65,7.79,102.27
20.65,-77.49019607843137,-182.50980392156862,-218.0,23.08,-13.2,110.56
20.7,-188.49019607843138,-35.509803921568626,-203.0,51.85,-62.52,113.61
20.75,-283.4901960784314,193.49019607843138,-141.0,-23.74,-52.33,107.62
20.8,247.01960784313727,209.49019607843138,181.0,-12.23,-54.78,98.66
20.85,-156.49019607843138,144.49019607843138,104.0,18.25,-75.78,73.78
20.9,49.509803921568626,-35.509803921568626,104.0,93.74,-80.19,51.31
20.95,193.50980392156862,62.490196078431374,12.0,69.8,-75.36,34.96
21.0,-275.0,-35.509803921568626,-64.0,22.94,-74.49,36.71
21.05,-306.0,95.49019607843137,-64.0,14.5,-68.82,13.51
21.1,-275.0,307.4901960784314,212.0,-129.62,-57.13,-9.97
21.15,-275.0,-231.50980392156862,212.0,-56.15,-36.2,-42.48
21.2,-195.0,13.490196078431373,212.0,113.1,-21.11,-96.03
21.25,-306.0,13.490196078431373,58.0,98.54,-33.57,-145.91
21.3,65.50980392156863,297.0,212.0,84.75,-44.63,-147.38
21.35,311.01960784313724,46.490196078431374,-122.50980392156863,-57.24,-3.96,-79.51
21.4,184.01960784313727,95.49019607843137,-261.5098039215686,-40.05,37.29,-35.69
21.45,-299.4901960784314,-236.01960784313727,181.0,-50.2,41.07,-27.57
21.5,2.5098039215686274,193.49019607843138,104.0,-29.2,6.25,-22.18
21.55,-93.49019607843137,258.4901960784314,181.0,88.28,-37.84,17.57
21.6,-61.490196078431374,-187.01960784313727,-64.0,42.29,11.85,25.65
21.65,-188.49019607843138,-182.50980392156862,255.50980392156862,26.61,46.64,27.82
21.7,-61.490196078431374,-263.5098039215686,-172.0,28.71,30.19,16.03
21.75,34.509803921568626,-133.50980392156862,227.0,39.63,18.36,-4.89
21.8,216.01960784313727,-149.50980392156862,73.0,-8.83,-0.46,-18.72
21.85,57.01960784313726,264.0,104.0,-40.93,0.75,-44.86
21.9,72.01960784313725,133.0,-95.0,-53.67,-1.62,-62.26
21.95,311.01960784313724,297.0,-95.0,-28.64,-4.21,-60.02
22.0,-124.49019607843137,-35.509803921568626,43.0,-22.94,-20.1,-39.58
22.05,193.50980392156862,128.49019607843138,73.0,-2.81,-18.7,20.86
22.1,224.50980392156862,-269.01960784313724,-95.0,32.14,-10.19,68.88
22.15,208.50980392156862,-220.01960784313727,-172.0,51.11,-3.44,59.88
22.2,18.50980392156863,-269.01960784313724,-172.0,115.62,-7.99,35.21
22.25,-188.49019607843138,-302.01960784313724,-18.0,233.04,-42.36,52.92
22.3,-252.49019607843138,-138.01960784313727,43.0,258.45,-36.72,90.26
22.35,279.01960784313724,160.49019607843138,150.0,195.56,-3.79,98.87
22.4,88.01960784313725,79.49019607843137,73.0,104.24,8.35,113.01
22.45,152.01960784313727,-67.50980392156863,27.0,51.32,2.22,111.68
22.5,-267.4901960784314,-35.509803921568626,-33.0,40.37,-16.95,100.66
22.55,-93.49019607843137,-35.509803921568626,-64.0,50.27,-40.4,80.25
22.6,97.50980392156863,-18.50980392156863,-64.0,65.11,-50.41,62.86
22.65,208.50980392156862,-35.509803921568626,-64.0,74.7,-53.35,40.77
22.7,240.50980392156862,-84.50980392156863,-156.0,72.81,-51.04,9.03
22.75,129.50980392156862,-116.50980392156863,-218.0,83.98,-56.81,-20.05
22.8,-45.490196078431374,-231.50980392156862,316.5098039215686,70.61,-54.68,-75.45
22.85,-252.49019607843138,297.0,132.50980392156862,13.1,-50.34,-128.09
22.9,216.01960784313727,117.0,86.50980392156863,-53.0,-39.03,-171.56
22.95,-38.98039215686274,35.0,70.50980392156863,-46.07,-25.21,-162.43
23.0,136.01960784313727,232.0,-36.490196078431374,-35.15,-14.22,-151.68
23.05,263.01960784313724,183.0,9.509803921568627,-117.68,25.92,-154.94
23.1,152.01960784313727,150.0,209.50980392156862,-135.53,28.09,-136.98
23.15,-267.4901960784314,281.0,209.50980392156862,-95.63,18.95,-106.95
23.2,-188.49019607843138,-247.50980392156862,178.50980392156862,-36.94,-0.74,-78.04
23.25,-77.49019607843137,-182.50980392156862,239.50980392156862,-7.92,-17.61,-51.51
23.3,-77.49019607843137,-247.50980392156862,193.50980392156862,-0.08,-22.65,-22.36
23.35,-77.49019607843137,313.0,147.50980392156862,6.0,-25.38,-0.97
23.4,-45.490196078431374,313.0,-98.49019607843137,-1.97,-19.5,20.89
23.45,-61.490196078431374,264.0,-52.490196078431374,32.95,-5.54,37.48
23.5,-220.49019607843138,281.0,-160.49019607843138,31.97,-5.08,32.41
23.55,-236.49019607843138,199.0,-129.49019607843138,57.62,3.73,19.88
23.6,231.01960784313727,248.0,-206.49019607843138,119.33,26.83,53.93
23.65,231.01960784313727,-198.50980392156862,-175.49019607843138,102.91,68.76,88.55
23.7,72.01960784313725,297.0,132.50980392156862,17.34,94.62,117.91
23.75,25.019607843137255,150.0,239.50980392156862,-11.7,77.65,141.26
23.8,216.01960784313727,248.0,270.5098039215686,13.87,39.39,148.64
23.85,311.01960784313724,297.0,-218.0,57.1,16.33,134.4
23.9,-252.49019607843138,-296.5098039215686,-172.0,67.6,2.08,108.57
23.95,-204.49019607843138,281.0,-141.0,39.32,-10.19,84.35
24.0,-220.49019607843138,166.0,-126.0,15.41,-29.02,64.19
24.05,-188.49019607843138,150.0,-172.0,11.67,-44.84,26.91
24.1,311.01960784313724,150.0,-310.0,28.99,-48.83,-18.19
24.15,231.01960784313727,84.0,147.50980392156862,15.66,-35.88,-68.59
24.2,-70.98039215686275,19.0,-37.490196078431374,-23.01,-12.19,-63.73
24.25,88.01960784313725,-45.0,-175.49019607843138,-118.17,15.07,-81.26
24.3,-220.49019607843138,-258.0,-160.49019607843138,-224.15,72.85,-136.95
24.35,-315.4901960784314,-290.0,101.50980392156863,-190.13,100.75,-165.26
24.4,-299.4901960784314,150.0,224.50980392156862,-108.23,76.67,-181.12
24.45,-77.49019607843137,-214.50980392156862,132.50980392156862,-65.43,40.79,-187.31
24.5,-77.49019607843137,-247.50980392156862,209.50980392156862,-58.43,9.61,-177.2
24.55,-108.49019607843137,-296.5098039215686,239.50980392156862,-72.99,-11.52,-152.38
24.6,-172.49019607843138,-280.5098039215686,239.50980392156862,-55.21,-31.37,-121.02
24.65,-188.49019607843138,-182.50980392156862,193.50980392156862,-12.86,-47.12,-79.76
24.7,-172.49019607843138,-133.50980392156862,39.509803921568626,18.04,-60.59,-29.85
24.75,-108.49019607843137,-133.50980392156862,-83.49019607843137,33.26,-55.83,-4.47
24.8,-220.49019607843138,-214.50980392156862,-206.49019607843138,75.09,-13.66,37.03
24.85,311.01960784313724,-84.50980392156863,252.01960784313727,98.47,20.7,97.4
24.9,-236.49019607843138,-100.50980392156863,-252.49019607843138,61.33,68.48,133.31
24.95,247.01960784313727,313.0,-52.490196078431374,-6.94,84.75,160.09
25.0,88.01960784313725,199.0,147.50980392156862,11.49,64.07,171.99
25.05,72.01960784313725,313.0,178.50980392156862,53.07,40.9,171.22
25.1,136.01960784313727,-263.5098039215686,286.5098039215686,65.04,26.83,163.76
25.15,168.01960784313727,313.0,-203.0,47.05,11.11,147.28
25.2,295.01960784313724,199.0,-218.0,23.18,-4.14,124.07
25.25,-204.49019607843138,183.0,-218.0,2.57,-27.38,76.47
25.3,-156.49019607843138,166.0,-218.0,3.62,-43.86,34.26
25.35,-61.490196078431374,133.0,-310.0,21.96,-50.9,-7.31
25.4,-61.490196078431374,133.0,193.50980392156862,26.19,-46.35,-43.5
25.45,-156.49019607843138,101.0,39.509803921568626,1.83,-42.43,-92.71
25.5,-315.4901960784314,19.0,9.509803921568627,-75.02,-23.77,-144.65
25.55,41.01960784313726,-13.0,-52.490196078431374,-54.09,-21.74,-151.96
25.6,216.01960784313727,133.0,-129.49019607843138,-36.38,-3.47,-155.18
25.65,-299.4901960784314,166.0,-113.49019607843137,-99.76,29.45,-157.28
25.7,216.01960784313727,117.0,70.50980392156863,-156.08,41.63,-140.69
25.75,247.01960784313727,232.0,163.50980392156862,-104.21,22.91,-109.19
25.8,-204.49019607843138,-263.5098039215686,209.50980392156862,-19.33,2.99,-89.91
25.85,-172.49019607843138,-133.50980392156862,224.50980392156862,16.08,-10.68,-67.33
25.9,-172.49019607843138,-133.50980392156862,193.50980392156862,7.64,-18.98,-39.3
25.95,-93.49019607843137,-247.50980392156862,178.50980392156862,-20.31,-12.19,-8.36
26.0,-108.49019607843137,313.0,39.509803921568626,-6.42,-3.05,30.69
26.05,-108.49019607843137,-263.5098039215686,-67.49019607843137,22.24,0.96,58.34
26.1,-108.49019607843137,-296.5098039215686,-113.49019607843137,43.73,6.04,79.13
26.15,-124.49019607843137,297.0,-144.49019607843138,26.4,2.5,67.34
26.2,-61.490196078431374,183.0,-52.490196078431374,26.05,-4.66,21.59
26.25,200.01960784313727,281.0,-21.49019607843137,61.05,16.75,62.33
26.3,295.01960784313724,-182.50980392156862,-83.49019607843137,107.92,16.22,119.28
26.35,-236.49019607843138,-296.5098039215686,193.50980392156862,58.88,35.58,134.29
26.4,200.01960784313727,199.0,224.50980392156862,-6.84,38.31,135.27
26.45,152.01960784313727,199.0,255.50980392156862,-12.19,21.75,136.04
26.5,200.01960784313727,232.0,-310.0,27.17,-12.47,124.46
26.55,-283.4901960784314,281.0,-295.0,55.7,-39.38,99.64
26.6,-140.49019607843138,232.0,-218.0,64.94,-55.31,65.24
26.65,-108.49019607843137,183.0,-233.0,57.62,-63.67,25.16
26.7,-77.49019607843137,150.0,-279.0,42.89,-65.88,-12.21
26.75,-156.49019607843138,166.0,286.5098039215686,55.98,-84.22,-44.83
26.8,-156.49019607843138,232.0,270.5098039215686,98.96,-87.26,-59.77
26.85,-299.4901960784314,264.0,70.50980392156863,103.12,-53.56,-45.95
26.9,231.01960784313727,199.0,-67.49019607843137,-21.57,-3.54,-55.26
26.95,120.01960784313725,-45.0,-52.490196078431374,-171.86,43.66,-46.12
27.0,-22.980392156862745,-62.0,24.50980392156863,-75.19,11.85,-1.11
27.05,-45.490196078431374,-312.5098039215686,-98.49019607843137,22.1,17.17,-0.66
27.1,34.509803921568626,-296.5098039215686,-21.49019607843137,-48.14,53.6,-33.03
27.15,-204.49019607843138,52.0,193.50980392156862,-126.82,48.6,-47.84
27.2,-188.49019607843138,68.0,224.50980392156862,-64.38,2.19,-32.86
27.25,-61.490196078431374,-280.5098039215686,132.50980392156862,46.14,-35.57,-18.54
27.3,18.50980392156863,-247.50980392156862,86.50980392156863,56.64,-41.94,-20.47
27.35,-45.490196078431374,264.0,116.50980392156863,37.78,-51.88,-28.8
27.4,-45.490196078431374,199.0,116.50980392156863,76.0,-61.54,-27.47
27.45,-140.49019607843138,297.0,-52.490196078431374,108.62,-45.02,-1.04
27.5,-236.49019607843138,-296.5098039215686,-129.49019607843138,97.45,-29.41,17.32
27.55,-188.49019607843138,264.0,-52.490196078431374,71.94,-16.98,25.27
27.6,-188.49019607843138,199.0,-67.49019607843137,84.43,-14.81,26.6
27.65,-108.49019607843137,313.0,-36.490196078431374,123.91,-23.56,-3.14
27.7,-204.49019607843138,-263.5098039215686,-6.490196078431373,129.69,29.03,-10.7
27.75,-70.98039215686275,-198.50980392156862,-144.49019607843138,160.73,56.12,47.77
27.8,231.01960784313727,-67.50980392156863,55.509803921568626,163.92,78.91,90.61
27.85,295.01960784313724,-198.50980392156862,255.50980392156862,70.15,118.35,95.83
27.9,72.01960784313725,-280.5098039215686,316.5098039215686,-9.64,124.48,106.68
27.95,-54.98039215686274,-296.5098039215686,-218.0,-43.34,90.63,140.07
28.0,-22.980392156862745,-198.50980392156862,-64.0,0.96,43.77,164.57
28.05,104.01960784313725,-100.50980392156863,-49.0,46.0,-0.88,175.56
28.1,120.01960784313725,-116.50980392156863,43.0,63.54,-36.41,176.57
28.15,120.01960784313725,-198.50980392156862,58.0,60.21,-71.72,166.28
28.2,168.01960784313727,-263.5098039215686,58.0,67.53,-101.02,155.33
28.25,104.01960784313725,-231.50980392156862,-18.0,76.91,-124.82,151.9
28.3,136.01960784313727,-263.5098039215686,-33.0,102.95,-141.62,153.72
28.35,41.01960784313726,-247.50980392156862,-141.0,123.7,-153.03,161.52
28.4,9.019607843137255,-263.5098039215686,-156.0,143.02,-138.33,161.98
28.45,25.019607843137255,-296.5098039215686,-310.0,70.15,-88.73,147.45
28.5,41.01960784313726,166.0,178.50980392156862,8.17,-63.25,115.22
28.55,216.01960784313727,52.0,70.50980392156863,-21.19,-49.43,78.57
28.6,279.01960784313724,-13.0,-129.49019607843138,16.99,-43.72,47.0
28.65,-188.49019607843138,35.0,-283.4901960784314,16.57,-29.44,-0.9
28.7,-77.49019607843137,-62.0,-283.4901960784314,-15.48,-11.77,-86.13
28.75,-188.49019607843138,-62.0,-83.49019607843137,-15.94,-9.35,-141.46
28.8,295.01960784313724,52.0,-83.49019607843137,29.87,-21.78,-157.14
28.85,-267.4901960784314,248.0,-160.49019607843138,44.6,-21.32,-166.1
28.9,-252.49019607843138,232.0,-36.490196078431374,-7.5,-6.38,-163.02
28.95,263.01960784313724,183.0,55.509803921568626,-31.41,5.44,-135.55
29.0,231.01960784313727,-312.5098039215686,9.509803921568627,-36.17,16.36,-96.87
29.05,295.01960784313724,-247.50980392156862,-6.490196078431373,-44.43,29.73,-57.88
29.1,-188.49019607843138,-247.50980392156862,39.509803921568626,-74.0,44.08,-21.69
29.15,-108.49019607843137,-296.5098039215686,101.50980392156863,-70.12,44.57,16.45
29.2,-93.49019607843137,-263.5098039215686,9.509803921568627,-50.83,31.06,47.14
29.25,-45.490196078431374,-280.5098039215686,55.509803921568626,-41.91,3.59,36.92
29.3,-93.49019607843137,-296.5098039215686,193.50980392156862,2.88,-27.38,11.13
29.35,-252.49019607843138,-182.50980392156862,224.50980392156862,115.93,-54.26,48.86
29.4,-124.49019607843137,-2.5098039215686274,147.50980392156862,187.86,-52.16,103.56
29.45,-108.49019607843137,-67.50980392156863,286.5098039215686,145.51,-28.11,133.31
29.5,136.01960784313727,-231.50980392156862,-295.0,130.84,-19.75,151.58
29.55,-22.980392156862745,-247.50980392156862,286.5098039215686,109.53,-8.27,179.76
29.6,25.019607843137255,-296.5098039215686,270.5098039215686,95.49,-3.82,208.95
29.65,120.01960784313725,297.0,-295.0,70.92,-8.58,215.7
29.7,200.01960784313727,199.0,-310.0,30.92,-9.14,183.08
29.75,279.01960784313724,117.0,301.5098039215686,4.14,-11.52,131.0
29.8,-220.49019607843138,84.0,-310.0,-5.68,-19.26,75.18
29.85,-108.49019607843137,101.0,-310.0,0.57,-37.91,8.99
29.9,-13.490196078431373,68.0,270.5098039215686,30.92,-44.63,-54.28
29.95,-61.490196078431374,150.0,178.50980392156862,21.75,-33.68,-108.84
30.0,-236.49019607843138,84.0,55.509803921568626,-9.67,-21.01,-159.84
30.05,200.01960784313727,52.0,-6.490196078431373,-65.25,-5.36,-181.47
30.1,-197.98039215686273,68.0,-52.490196078431374,-85.1,6.04,-150.98
30.15,168.01960784313727,215.0,-206.49019607843138,-41.21,21.47,-124.03
30.2,-188.49019607843138,232.0,24.50980392156863,-77.64,57.73,-117.42
30.25,200.01960784313727,232.0,147.50980392156862,-147.33,69.0,-99.32
30.3,231.01960784313727,264.0,286.5098039215686,-156.32,44.92,-67.33
30.35,-220.49019607843138,313.0,270.5098039215686,-138.51,24.62,-52.63
30.4,-45.490196078431374,-296.5098039215686,-233.0,-55.98,7.26,-58.3
30.45,-93.49019607843137,-182.50980392156862,-280.0,19.47,-16.81,-62.57
30.5,-45.490196078431374,-165.50980392156862,209.50980392156862,57.27,-36.44,-47.66
30.55,-45.490196078431374,-182.50980392156862,132.50980392156862,59.55,-37.91,-17.42
30.6,-93.49019607843137,-263.5098039215686,-52.490196078431374,42.85,-33.43,3.11
30.65,-188.49019607843138,297.0,-36.490196078431374,30.18,-15.23,24.99
30.7,216.01960784313727,313.0,-160.49019607843138,74.98,-11.03,62.05
30.75,-315.4901960784314,-263.5098039215686,-144.49019607843138,113.59,1.0,86.83
30.8,-93.49019607843137,-296.5098039215686,-98.49019607843137,96.68,41.42,70.35
30.85,311.01960784313724,215.0,101.50980392156863,36.1,69.88,59.92
30.9,88.01960784313725,183.0,116.50980392156863,11.0,63.16,86.34
30.95,152.01960784313727,264.0,239.50980392156862,34.8,38.97,117.32
31.0,311.01960784313724,313.0,-310.0,60.98,21.4,123.51
31.05,-188.49019607843138,313.0,-233.0,51.39,17.94,105.21
31.1,-172.49019607843138,215.0,-172.0,27.42,15.52,83.33
31.15,-220.49019607843138,150.0,-172.0,-10.3,15.0,64.22
31.2,231.01960784313727,117.0,-249.0,-65.01,-4.94,22.99
31.25,136.01960784313727,35.0,316.5098039215686,-24.44,-54.96,11.9
31.3,-220.49019607843138,150.0,55.509803921568626,109.35,-86.84,20.02
31.35,-29.49019607843137,199.0,-283.4901960784314,23.57,-49.43,-9.65
31.4,-172.49019607843138,-225.0,-236.49019607843138,-66.06,-22.3,-60.75
31.45,-13.490196078431373,-241.0,-113.49019607843137,-35.64,-19.5,-95.61
31.5,18.50980392156863,68.0,-113.49019607843137,9.71,-21.43,-120.85
31.55,-45.490196078431374,248.0,-98.49019607843137,37.85,-24.72,-118.47
31.6,-140.49019607843138,313.0,-67.49019607843137,28.26,-22.48,-97.08
31.65,-188.49019607843138,281.0,-6.490196078431373,-18.56,-7.32,-54.14
31.7,-188.49019607843138,248.0,-6.490196078431373,-23.95,-2.84,-21.1
31.75,-172.49019607843138,-312.5098039215686,9.509803921568627,-26.82,-5.5,14.0
31.8,-156.49019607843138,-263.5098039215686,86.50980392156863,15.48,-30.6,24.92
31.85,-61.490196078431374,-247.50980392156862,55.509803921568626,66.3,-26.19,8.05
31.9,311.01960784313724,-198.50980392156862,9.509803921568627,121.88,-1.06,68.74
31.95,200.01960784313727,-84.50980392156863,-129.49019607843138,113.27,24.87,122.53
32.0,200.01960784313727,-247.50980392156862,55.509803921568626,34.24,59.2,157.5
32.05,-22.980392156862745,183.0,101.50980392156863,7.61,61.48,177.94
32.1,104.01960784313725,232.0,147.50980392156862,14.15,46.22,171.08
32.15,279.01960784313724,264.0,286.5098039215686,25.91,20.07,136.78
32.2,-252.49019607843138,215.0,-218.0,41.07,9.5,100.8
32.25,-252.49019607843138,232.0,-249.0,43.55,-6.94,71.4
32.3,-172.49019607843138,166.0,-172.0,7.57,-21.64,39.76
32.35,-204.49019607843138,101.0,-233.0,-1.87,-41.13,4.58
32.4,-188.49019607843138,84.0,-264.0,29.94,-58.7,-26.73
32.45,-156.49019607843138,117.0,193.50980392156862,68.93,-72.84,-67.12
32.5,-299.4901960784314,133.0,70.50980392156863,36.38,-63.95,-112.41
32.55,9.019607843137255,19.0,-98.49019607843137,-6.7,-47.78,-118.64
32.6,168.01960784313727,3.0,-144.49019607843138,-49.75,-15.62,-118.26
32.65,-236.49019607843138,19.0,-160.49019607843138,-141.17,29.87,-129.56
32.7,279.01960784313724,-29.0,9.509803921568627,-187.51,43.87,-119.1
32.75,-299.4901960784314,133.0,70.50980392156863,-135.11,37.01,-101.63
32.8,-156.49019607843138,-296.5098039215686,132.50980392156862,-31.06,10.03,-83.78
32.85,-61.490196078431374,-198.50980392156862,132.50980392156862,-13.21,-2.63,-68.28
32.9,-61.490196078431374,313.0,178.50980392156862,-25.28,-12.36,-49.2
32.95,-45.490196078431374,264.0,116.50980392156863,-20.31,-18.35,-28.45
33.0,-29.49019607843137,281.0,70.50980392156863,-0.15,-24.72,-11.58
33.05,2.5098039215686274,313.0,9.509803921568627,8.2,-31.37,0.66
33.1,-77.49019607843137,281.0,-36.490196078431374,9.39,-36.51,3.15
33.15,-156.49019607843138,281.0,-52.490196078431374,27.42,-11.1,8.26
33.2,88.01960784313725,-263.5098039215686,-252.49019607843138,73.72,15.7,69.79
33.25,279.01960784313724,-165.50980392156862,-160.49019607843138,56.57,47.79,132.12
33.3,136.01960784313727,215.0,55.509803921568626,-4.11,67.81,170.52
33.35,-22.980392156862745,117.0,9.509803921568627,-25.39,62.84,200.44
33.4,88.01960784313725,150.0,163.50980392156862,-28.22,46.5,175.21
33.45,263.01960784313724,117.0,286.5098039215686,-31.27,30.33,118.33
33.5,-140.49019607843138,68.0,-310.0,-9.43,17.87,55.19
33.55,-13.490196078431373,84.0,-203.0,22.94,3.9,-3.74
33.6,49.509803921568626,150.0,-218.0,46.88,-16.39,-64.71
33.65,-77.49019607843137,166.0,-280.0,43.34,-37.28,-107.65
33.7,-188.49019607843138,133.0,316.5098039215686,27.66,-53.98,-154.76
33.75,247.01960784313727,133.0,178.50980392156862,5.3,-50.06,-170.65
33.8,-101.98039215686275,183.0,24.50980392156863,46.7,-60.45,-106.78
33.85,-315.4901960784314,313.0,-190.49019607843138,-25.04,-33.01,-58.06
33.9,-267.4901960784314,35.0,-129.49019607843138,-119.43,4.18,-48.33
33.95,311.01960784313724,3.0,-6.490196078431373,-107.15,6.04,-38.63
34.0,-93.49019607843137,215.0,-52.490196078431374,-46.04,4.92,-35.17
34.05,18.50980392156863,-312.5098039215686,9.509803921568627,-4.07,2.36,-28.06
34.1,18.50980392156863,313.0,55.509803921568626,-20.07,-0.71,-9.79
34.15,-45.490196078431374,232.0,101.50980392156863,-14.5,-16.25,12.14
34.2,-61.490196078431374,232.0,55.509803921568626,25.77,-30.11,31.29
34.25,-77.49019607843137,281.0,-21.49019607843137,47.12,-27.97,36.68
34.3,-108.49019607843137,232.0,-21.49019607843137,27.31,-27.8,10.78
34.35,-252.49019607843138,133.0,-6.490196078431373,3.09,4.43,9.8
34.4,-101.98039215686275,183.0,-144.49019607843138,87.97,-3.33,64.54
34.45,-236.49019607843138,-214.50980392156862,-98.49019607843137,116.63,8.63,87.01
34.5,-156.49019607843138,297.0,147.50980392156862,56.54,44.33,64.85
34.55,231.01960784313727,101.0,163.50980392156862,-6.42,68.48,60.58
34.6,72.01960784313725,199.0,316.5098039215686,-18.0,44.43,84.94
34.65,231.01960784313727,281.0,-141.0,-0.99,12.27,101.04
34.7,311.01960784313724,297.0,-141.0,27.28,-11.31,95.93
34.75,-252.49019607843138,297.0,-172.0,32.81,-26.99,64.75
34.8,-220.49019607843138,215.0,-141.0,18.04,-38.16,27.12
34.85,-220.49019607843138,166.0,-218.0,14.64,-50.86,-0.31
34.9,-188.49019607843138,183.0,-264.0,48.59,-55.06,-20.12
34.95,-204.49019607843138,248.0,270.5098039215686,63.61,-44.35,-40.98
35.0,-315.4901960784314,232.0,147.50980392156862,-23.22,-15.02,-72.06
35.05,-38.98039215686274,52.0,132.50980392156862,-18.21,-33.4,-43.71
35.1,-315.4901960784314,199.0,24.50980392156863,56.68,-34.38,-4.72
35.15,-29.49019607843137,313.0,-113.49019607843137,-19.86,13.21,-17.32
35.2,-252.49019607843138,3.0,55.509803921568626,-110.86,42.09,-45.53
35.25,311.01960784313724,-13.0,116.50980392156863,-71.8,20.49,-36.74
35.3,-172.49019607843138,297.0,24.50980392156863,18.56,0.72,-20.29
35.35,-77.49019607843137,-263.5098039215686,39.509803921568626,9.85,2.64,-20.26
35.4,-124.49019607843137,248.0,132.50980392156862,-6.31,-5.19,-23.62
35.45,-156.49019607843138,232.0,162.50980392156862,21.26,-19.26,-18.79
35.5,-172.49019607843138,297.0,86.50980392156863,70.85,-31.96,-5.91
35.55,-140.49019607843138,-296.5098039215686,9.509803921568627,75.37,-23.91,15.75
35.6,-156.49019607843138,248.0,-21.49019607843137,69.45,-20.59,28.56
35.65,-108.49019607843137,199.0,39.509803921568626,71.48,-21.08,27.09
35.7,-77.49019607843137,232.0,9.509803921568627,100.39,-25.1,9.62
35.75,-61.490196078431374,313.0,-36.490196078431374,115.9,0.19,-37.2
35.8,57.01960784313726,313.0,-52.490196078431374,124.93,42.89,38.43
35.85,104.01960784313725,-116.50980392156863,-252.49019607843138,157.51,54.41,94.81
35.9,-156.49019607843138,-149.50980392156862,101.50980392156863,70.82,82.02,96.84
35.95,216.01960784313727,199.0,286.5098039215686,2.92,83.32,95.86
36.0,104.01960784313725,264.0,286.5098039215686,48.17,68.83,98.59
36.05,184.01960784313727,-165.50980392156862,-310.0,65.78,59.34,118.3
36.1,247.01960784313727,-182.50980392156862,-110.0,35.01,39.08,131.11
36.15,279.01960784313724,313.0,-49.0,11.91,6.77,128.1
36.2,231.01960784313727,-312.5098039215686,-18.0,19.89,-29.16,122.64
36.25,184.01960784313727,-247.50980392156862,-3.0,57.17,-80.12,127.92
36.3,247.01960784313727,-247.50980392156862,-18.0,86.08,-122.51,133.24
36.35,231.01960784313727,-231.50980392156862,-64.0,124.05,-142.32,134.54
36.4,184.01960784313727,-247.50980392156862,-141.0,149.88,-143.86,144.13
36.45,72.01960784313725,-280.5098039215686,-233.0,159.68,-132.66,153.82
36.5,41.01960784313726,313.0,301.5098039215686,140.5,-111.17,153.93
36.55,88.01960784313725,199.0,224.50980392156862,101.76,-79.42,138.07
36.6,136.01960784313727,117.0,132.50980392156862,49.29,-51.74,109.2
36.65,231.01960784313727,35.0,101.50980392156863,23.57,-30.88,65.13
36.7,279.01960784313724,19.0,70.50980392156863,-10.34,-10.72,6.33
36.75,279.01960784313724,3.0,86.50980392156863,12.75,-25.28,-41.68
36.8,-140.49019607843138,101.0,86.50980392156863,29.24,-33.71,-91.1
36.85,-172.49019607843138,117.0,86.50980392156863,28.4,-33.99,-126.52
36.9,-204.49019607843138,117.0,55.509803921568626,24.58,-38.93,-138.14
36.95,279.01960784313724,133.0,24.50980392156863,58.29,-43.58,-122.56
37.0,295.01960784313724,248.0,-113.49019607843137,63.15,-25.87,-90.19
37.05,311.01960784313724,199.0,-175.49019607843138,32.74,-2.77,-61.73
37.1,-283.4901960784314,150.0,-144.49019607843138,24.48,11.78,-37.13
37.15,-204.49019607843138,215.0,-144.49019607843138,45.97,27.95,-4.72
37.2,-124.49019607843137,313.0,-160.49019607843138,38.06,37.19,27.79
37.25,34.509803921568626,215.0,55.509803921568626,-23.6,48.42,43.33
37.3,-45.490196078431374,117.0,116.50980392156863,-57.52,40.76,55.37
37.35,-61.490196078431374,166.0,147.50980392156862,-22.52,12.83,64.54
37.4,-61.490196078431374,297.0,132.50980392156862,15.73,-8.48,57.71
37.45,-283.4901960784314,-296.5098039215686,116.50980392156863,42.61,-19.15,56.14
37.5,200.01960784313727,-312.5098039215686,132.50980392156862,113.83,-32.66,96.14
37.55,-236.49019607843138,-231.50980392156862,132.50980392156862,147.54,-19.92,113.57
37.6,263.01960784313724,-296.5098039215686,209.50980392156862,106.69,6.63,110.67
37.65,72.01960784313725,232.0,193.50980392156862,56.12,16.78,113.5
37.7,168.01960784313727,199.0,301.5098039215686,44.29,12.79,126.77
37.75,263.01960784313724,248.0,316.5098039215686,67.0,-9.95,124.74
37.8,-299.4901960784314,232.0,-279.0,72.78,-18.63,106.85
37.85,-299.4901960784314,232.0,-295.0,63.96,-23.21,79.06
37.9,-204.49019607843138,183.0,-279.0,39.21,-25.7,45.88
37.95,-204.49019607843138,117.0,-279.0,23.36,-22.86,20.16
38.0,-315.4901960784314,150.0,286.5098039215686,23.85,-38.09,-0.83
38.05,-236.49019607843138,166.0,239.50980392156862,37.15,-48.59,-33.35
38.1,311.01960784313724,183.0,162.50980392156862,41.87,-41.24,-47.45
38.15,72.01960784313725,166.0,-52.490196078431374,52.3,-25.17,2.06
38.2,311.01960784313724,150.0,-160.49019607843138,2.78,3.97,24.85
38.25,-188.49019607843138,-29.0,-113.49019607843137,-110.09,37.29,2.41
38.3,-252.49019607843138,-160.0,70.50980392156863,-108.62,29.03,-28.66
38.35,-124.49019607843137,35.0,39.509803921568626,-20.45,10.59,-46.72
38.4,49.509803921568626,232.0,55.509803921568626,9.74,2.15,-61.73
38.45,18.50980392156863,199.0,132.50980392156862,-20.49,-5.29,-72.41
38.5,-61.490196078431374,101.0,147.50980392156862,-18.46,-32.07,-68.63
38.55,-108.49019607843137,199.0,101.50980392156863,28.54,-53.42,-58.51
38.6,-108.49019607843137,281.0,9.509803921568627,51.11,-49.04,-47.84
38.65,-140.49019607843138,248.0,-52.490196078431374,19.79,-23.6,-25.4
38.7,-236.49019607843138,166.0,-6.490196078431373,-8.17,-13.13,-1.18
38.75,-172.49019607843138,166.0,24.50980392156863,-12.19,-9.6,16.41
38.8,-108.49019607843137,199.0,-36.490196078431374,16.95,-19.57,7.77
38.85,-108.49019607843137,264.0,-21.49019607843137,23.92,-9.28,-10.56
38.9,200.01960784313727,264.0,-98.49019607843137,26.3,22.98,37.13
38.95,88.01960784313725,-296.5098039215686,-144.49019607843138,62.73,31.59,99.15
39.0,-220.49019607843138,313.0,24.50980392156863,19.51,70.37,112.49
39.05,247.01960784313727,150.0,147.50980392156862,-58.15,95.22,104.37
39.1,57.01960784313726,68.0,209.50980392156862,-85.38,83.74,104.37
39.15,136.01960784313727,133.0,-310.0,-44.36,37.64,107.45
39.2,-299.4901960784314,248.0,-264.0,11.32,-4.87,84.52
39.25,-172.49019607843138,248.0,-264.0,23.25,-20.27,34.65
39.3,-108.49019607843137,183.0,-264.0,-11.07,-21.04,-21.94
39.35,-61.490196078431374,68.0,-279.0,-15.31,-32.8,-69.08
39.4,-45.490196078431374,101.0,-310.0,17.69,-62.9,-108.63
39.45,-45.490196078431374,215.0,286.5098039215686,69.77,-91.08,-138.38
39.5,-172.49019607843138,264.0,163.50980392156862,104.0,-86.74,-149.9
39.55,295.01960784313724,264.0,9.509803921568627,6.21,-37.98,-147.97
39.6,152.01960784313727,101.0,-160.49019607843138,-105.89,4.29,-124.56
39.65,41.01960784313726,52.0,9.509803921568627,-161.08,32.92,-46.54
39.7,-6.980392156862745,232.0,-67.49019607843137,-61.02,32.95,21.45
39.75,-252.49019607843138,-214.50980392156862,-98.49019607843137,-36.17,54.72,45.01
39.8,-140.49019607843138,-280.5098039215686,39.509803921568626,-74.39,64.42,61.32
39.85,-188.49019607843138,166.0,178.50980392156862,-101.09,47.3,78.85
39.9,-188.49019607843138,133.0,178.50980392156862,-68.16,19.58,81.44
39.95,-93.49019607843137,215.0,178.50980392156862,-23.46,-0.85,47.49
40.0,-13.490196078431373,166.0,132.50980392156862,1.9,-15.72,11.3
40.05,-45.490196078431374,117.0,86.50980392156863,26.75,-34.94,-19.7
40.1,2.5098039215686274,101.0,-6.490196078431373,31.48,-42.5,-45.91
40.15,2.5098039215686274,52.0,-98.49019607843137,8.52,-39.07,-77.34
40.2,-29.49019607843137,52.0,-52.490196078431374,13.28,-45.26,-106.46
40.25,-124.49019607843137,150.0,9.509803921568627,39.42,-46.94,-126.87
40.3,200.01960784313727,215.0,-52.490196078431374,41.66,-22.83,-79.93
40.35,-38.98039215686274,313.0,-113.49019607843137,90.35,-17.86,3.53
40.4,-252.49019607843138,-263.5098039215686,-113.49019607843137,54.65,14.44,42.42
40.45,-77.49019607843137,183.0,55.509803921568626,-22.66,69.42,35.14
40.5,-283.4901960784314,133.0,178.50980392156862,-54.09,89.44,42.31
40.55,184.01960784313727,297.0,270.5098039215686,-79.01,81.01,83.09
40.6,88.01960784313725,-312.5098039215686,-295.0,-48.52,41.88,130.23
40.65,216.01960784313727,-296.5098039215686,-279.0,13.24,3.1,152.39
40.7,-299.4901960784314,-296.5098039215686,-233.0,29.48,-9.95,132.93
40.75,-252.49019607843138,248.0,-233.0,7.47,-19.33,90.54
40.8,-140.49019607843138,133.0,-203.0,-2.08,-32.24,36.64
40.85,-124.49019607843137,133.0,-249.0,22.06,-48.48,-15.04
40.9,-172.49019607843138,166.0,316.5098039215686,60.6,-57.55,-57.5
40.95,-252.49019607843138,199.0,163.50980392156862,87.2,-51.53,-89.73
41.0,-315.4901960784314,183.0,-6.490196078431373,50.97,-38.16,-118.57
41.05,200.01960784313727,84.0,-36.490196078431374,-17.86,-5.89,-118.4
41.1,-22.980392156862745,68.0,-144.49019607843138,10.13,-9.98,-60.33
41.15,-77.49019607843137,281.0,-144.49019607843138,-2.95,6.0,-45.25
41.2,-45.490196078431374,150.0,-36.490196078431374,-51.43,22.73,-49.41
41.25,-156.49019607843138,150.0,163.50980392156862,-20.73,1.87,-28.34
41.3,-93.49019607843137,-296.5098039215686,55.509803921568626,59.02,-21.53,2.41
41.35,-13.490196078431373,-198.50980392156862,55.509803921568626,84.89,-18.7,30.66
41.4,-108.49019607843137,-280.5098039215686,70.50980392156863,75.26,-9.67,56.66
41.45,-172.49019607843138,297.0,86.50980392156863,72.29,-3.4,83.65
41.5,-267.4901960784314,264.0,24.50980392156863,83.31,3.87,101.6
41.55,311.01960784313724,248.0,-6.490196078431373,85.17,10.41,111.4
41.6,-315.4901960784314,215.0,39.509803921568626,67.35,16.01,110.14
41.65,-315.4901960784314,166.0,147.50980392156862,50.59,9.61,98.7
41.7,-220.49019607843138,150.0,209.50980392156862,43.8,-6.97,71.64
41.75,-140.49019607843138,166.0,270.5098039215686,59.34,-22.48,39.79
41.8,-93.49019607843137,199.0,301.5098039215686,85.8,-37.25,19.74
41.85,-93.49019607843137,264.0,270.5098039215686,99.59,-55.27,11.2
41.9,-77.49019607843137,281.0,224.50980392156862,100.57,-63.25,-13.22
41.95,-283.4901960784314,248.0,101.50980392156863,91.08,-28.85,-4.61
42.0,72.01960784313725,313.0,-21.49019607843137,93.46,-13.2,45.67
42.05,295.01960784313724,313.0,86.50980392156863,76.42,-3.33,78.64
42.1,-315.4901960784314,248.0,209.50980392156862,61.4,5.76,100.69
42.15,311.01960784313724,264.0,147.50980392156862,63.92,12.97,99.85
42.2,295.01960784313724,297.0,270.5098039215686,46.7,19.34,93.73
42.25,216.01960784313727,248.0,-295.0,34.56,6.07,100.41
42.3,295.01960784313724,248.0,-218.0,37.11,-13.48,98.66
42.35,311.01960784313724,281.0,-187.0,46.18,-35.46,80.99
42.4,295.01960784313724,264.0,-172.0,86.81,-65.67,57.78
42.45,-283.4901960784314,313.0,-156.0,121.88,-79.7,49.63
42.5,-299.4901960784314,-312.5098039215686,-187.0,148.34,-76.83,54.14
42.55,-315.4901960784314,-296.5098039215686,-249.0,100.85,-52.65,68.42
42.6,231.01960784313727,248.0,-295.0,23.88,-41.94,74.79
42.65,311.01960784313724,133.0,-295.0,-7.33,-33.89,64.43
42.7,311.01960784313724,133.0,270.5098039215686,1.31,-27.48,49.28
42.75,-315.4901960784314,183.0,178.50980392156862,7.4,-17.96,23.48
42.8,-283.4901960784314,150.0,147.50980392156862,-8.24,-1.02,-12.03
42.85,-267.4901960784314,68.0,86.50980392156863,-43.55,19.16,-75.84
42.9,216.01960784313727,35.0,86.50980392156863,-57.1,41.46,-96.38
42.95,72.01960784313725,183.0,9.509803921568627,-0.68,26.69,-66.91
43.0,-140.49019607843138,297.0,9.509803921568627,-37.08,42.72,-65.58
43.05,-172.49019607843138,117.0,163.50980392156862,-94.2,56.3,-76.12
43.1,-315.4901960784314,117.0,239.50980392156862,-71.76,32.15,-56.94
43.15,-236.49019607843138,297.0,209.50980392156862,6.28,-1.09,-31.81
43.2,-93.49019607843137,-247.50980392156862,209.50980392156862,8.73,-3.47,-24.95
43.25,-93.49019607843137,297.0,193.50980392156862,-17.2,-6.59,-19.52
43.3,-108.49019607843137,215.0,209.50980392156862,-11.25,-19.61,-10.63
43.35,-124.49019607843137,281.0,147.50980392156862,24.93,-25.91,2.24
43.4,-188.49019607843138,313.0,39.509803921568626,30.43,-16.6,24.25
43.45,-140.49019607843138,248.0,-6.490196078431373,1.76,-4.73,30.94
43.5,-172.49019607843138,133.0,55.509803921568626,-7.19,-1.97,28.73
43.55,-172.49019607843138,133.0,39.509803921568626,7.5,-10.89,19.28
43.6,-93.49019607843137,183.0,70.50980392156863,21.96,-17.23,4.76
43.65,-124.49019607843137,215.0,86.50980392156863,33.86,-23.46,-14.34
43.7,-140.49019607843138,248.0,70.50980392156863,29.52,-20.38,-26.84
43.75,295.01960784313724,232.0,24.50980392156863,19.65,1.84,-8.88
43.8,120.01960784313725,313.0,-6.490196078431373,3.51,20.21,41.54
43.85,-315.4901960784314,297.0,101.50980392156863,-13.31,26.79,77.03
43.9,311.01960784313724,232.0,239.50980392156862,32.28,26.9,84.49
43.95,-315.4901960784314,-312.5098039215686,178.50980392156862,76.73,13.84,74.76
44.0,-299.4901960784314,313.0,270.5098039215686,74.67,0.12,57.54
44.05,-252.49019607843138,199.0,-310.0,45.76,-8.06,48.65
44.1,-252.49019607843138,166.0,316.5098039215686,35.5,-12.64,49.24
44.15,-236.49019607843138,199.0,-310.0,28.4,-21.6,42.52
44.2,-204.49019607843138,183.0,-295.0,29.24,-34.03,29.05
44.25,-172.49019607843138,183.0,-279.0,29.17,-44.98,9.52
44.3,-188.49019607843138,199.0,-249.0,24.06,-54.26,-5.77
44.35,-236.49019607843138,183.0,-279.0,25.14,-61.36,-10.98
44.4,-315.4901960784314,248.0,286.5098039215686,33.72,-59.47,-7.66
44.45,311.01960784313724,232.0,224.50980392156862,23.46,-47.78,-3.74
44.5,311.01960784313724,199.0,193.50980392156862,16.81,-35.88,-1.71
44.55,311.01960784313724,166.0,178.50980392156862,13.49,-21.92,0.52
44.6,295.01960784313724,199.0,132.50980392156862,10.41,-6.73,3.71
44.65,311.01960784313724,199.0,163.50980392156862,1.24,4.46,4.34
44.7,311.01960784313724,215.0,193.50980392156862,-3.13,13.63,3.5
44.75,311.01960784313724,232.0,224.50980392156862,0.36,14.4,1.22
44.8,311.01960784313724,248.0,270.5098039215686,10.2,10.66,3.15
44.85,-315.4901960784314,248.0,255.50980392156862,13.52,11.32,7.07
44.9,-315.4901960784314,264.0,286.5098039215686,7.57,14.05,6.12
44.95,-299.4901960784314,232.0,286.5098039215686,12.16,14.26,3.04
45.0,-267.4901960784314,215.0,301.5098039215686,14.75,11.64,3.32
45.05,-172.49019607843138,232.0,270.5098039215686,6.28,5.51,-6.89
45.1,311.01960784313724,215.0,301.5098039215686,3.41,0.33,-8.43
45.15,216.01960784313727,264.0,239.50980392156862,13.21,-7.5,4.79
45.2,-252.49019607843138,281.0,224.50980392156862,28.47,-8.76,16.9
45.25,-156.49019607843138,264.0,193.50980392156862,16.85,0.82,16.8
45.3,-156.49019607843138,215.0,193.50980392156862,-8.66,9.22,6.75
45.35,-220.49019607843138,166.0,193.50980392156862,12.93,-3.44,-2.2
45.4,-220.49019607843138,232.0,224.50980392156862,106.34,-24.93,13.93
45.45,-188.49019607843138,-198.50980392156862,209.50980392156862,285.33,-50.69,86.03
45.5,-172.49019607843138,-286.01960784313724,70.50980392156863,325.16,-14.71,155.54
45.55,311.01960784313724,160.49019607843138,147.50980392156862,284.77,48.42,186.23
45.6,231.01960784313727,-51.509803921568626,-52.490196078431374,224.82,88.67,173.81
45.65,247.01960784313727,-263.5098039215686,-67.49019607843137,151.49,105.4,157.22
45.7,-315.4901960784314,117.0,55.509803921568626,133.05,94.94,150.11
45.75,-156.49019607843138,199.0,9.509803921568627,112.75,73.03,135.73
45.8,-13.490196078431373,150.0,116.50980392156863,109.7,49.44,119.52
45.85,97.50980392156863,166.0,-6.490196078431373,49.96,21.37,94.15
45.9,161.50980392156862,35.0,39.509803921568626,87.58,5.58,70.21
45.95,177.50980392156862,84.0,-52.490196078431374,68.61,7.19,50.57
46.0,161.50980392156862,35.0,-283.4901960784314,58.99,-5.43,26.35
46.05,193.50980392156862,-29.0,-160.49019607843138,17.55,-11.1,12.98
46.1,145.50980392156862,-78.0,-313.4901960784314,13.17,-7.29,27.12
46.15,145.50980392156862,-225.0,-144.49019607843138,27.49,-6.8,23.73
46.2,193.50980392156862,-78.0,313.01960784313724,23.43,-5.54,17.95
46.25,208.50980392156862,-225.0,-283.4901960784314,8.55,-3.54,20.68
46.3,161.50980392156862,-209.0,-221.49019607843138,-3.69,-8.55,22.4
46.35,161.50980392156862,-192.0,-206.49019607843138,-121.32,-14.6,2.24
46.4,177.50980392156862,270.5098039215686,-67.49019607843137,-166.82,-19.43,-41.82
46.45,129.50980392156862,-307.0,-36.490196078431374,-240.5,-16.67,-95.05
46.5,18.50980392156863,319.5098039215686,101.50980392156863,-231.54,-12.64,-147.45
46.55,-172.49019607843138,-143.0,116.50980392156863,-179.67,-29.86,-175.31
46.6,-252.49019607843138,68.0,178.50980392156862,-82.05,-72.49,-195.57
46.65,-283.4901960784314,248.0,116.50980392156863,36.48,-109.59,-200.19
46.7,311.01960784313724,-280.5098039215686,-21.49019607843137,102.42,-112.18,-182.48
46.75,231.01960784313727,-296.5098039215686,-160.49019607843138,81.84,-84.43,-146.96
46.8,216.01960784313727,297.0,-129.49019607843138,16.01,-43.62,-91.45
46.85,295.01960784313724,199.0,-52.490196078431374,-47.61,-1.97,-25.4
46.9,-267.4901960784314,183.0,-160.49019607843138,-51.95,24.48,20.16
46.95,-124.49019607843137,264.0,-160.49019607843138,-11.63,35.96,53.97
47.0,-93.49019607843137,-280.5098039215686,-144.49019607843138,29.31,34.18,71.85
47.05,-172.49019607843138,-312.5098039215686,70.50980392156863,22.34,40.2,96.32
47.1,184.01960784313727,-296.5098039215686,55.509803921568626,17.41,42.09,143.46
47.15,136.01960784313727,-231.50980392156862,70.50980392156863,42.82,33.37,187.67
47.2,295.01960784313724,-296.5098039215686,209.50980392156862,45.86,30.78,196.49
47.25,136.01960784313727,313.0,-279.0,54.19,14.26,158.93
47.3,-38.98039215686274,281.0,301.5098039215686,52.9,6.6,125.86
47.35,41.01960784313726,264.0,-233.0,49.12,-8.3,117.7
47.4,247.01960784313727,248.0,-126.0,44.53,-36.41,111.58
47.45,-252.49019607843138,215.0,-126.0,27.94,-59.61,72.03
47.5,-156.49019607843138,199.0,-126.0,31.93,-82.05,12.0
47.55,-124.49019607843137,248.0,-95.0,113.97,-114.32,-9.58
47.6,-140.49019607843138,-263.5098039215686,-172.0,159.23,-126.08,-4.47
47.65,-236.49019607843138,-247.50980392156862,-279.0,155.55,-107.98,14.66
47.7,216.01960784313727,313.0,193.50980392156862,94.37,-79.98,28.66
47.75,231.01960784313727,166.0,163.50980392156862,31.62,-48.48,23.94
47.8,200.01960784313727,19.0,-98.49019607843137,-9.04,-10.44,4.69
47.85,136.01960784313727,35.0,-190.49019607843138,-13.91,20.35,0.14
47.9,120.01960784313725,68.0,-221.49019607843138,-7.19,41.39,-6.36
47.95,-236.49019607843138,35.0,-175.49019607843138,-42.22,67.92,-25.82
48.0,-220.49019607843138,3.0,39.509803921568626,-101.69,88.74,-37.06
48.05,-315.4901960784314,52.0,239.50980392156862,-98.96,73.38,-27.22
48.1,-252.49019607843138,117.0,255.50980392156862,-61.02,42.44,-22.01
48.15,-124.49019607843137,166.0,-295.0,-18.98,18.43,-32.79
48.2,-108.49019607843137,183.0,-295.0,3.83,-4.24,-53.3
48.25,-108.49019607843137,183.0,-295.0,2.04,-24.86,-68.49
48.3,-124.49019607843137,183.0,301.5098039215686,10.37,-48.62,-79.06
48.35,-93.49019607843137,199.0,209.50980392156862,23.5,-61.08,-87.46
48.4,-93.49019607843137,215.0,101.50980392156863,47.72,-63.95,-90.54
48.45,-172.49019607843138,248.0,-37.490196078431374,53.14,-52.65,-78.15
48.5,-252.49019607843138,264.0,-129.49019607843138,27.94,-35.99,-48.78
48.55,-252.49019607843138,215.0,-129.49019607843138,24.27,-13.73,-26.8
48.6,247.01960784313727,297.0,-206.49019607843138,66.9,24.48,26.91
48.65,88.01960784313725,-133.50980392156862,-267.4901960784314,97.0,58.57,96.95
48.7,295.01960784313724,-182.50980392156862,-129.49019607843138,65.88,96.62,135.83
48.75,168.01960784313727,281.0,193.50980392156862,0.19,116.67,156.9
48.8,25.019607843137255,183.0,224.50980392156862,-15.73,103.58,174.72
48.85,-6.980392156862745,281.0,239.50980392156862,-24.76,75.83,185.18
48.9,72.01960784313725,264.0,-203.0,-7.99,37.05,176.61
48.95,247.01960784313727,264.0,-141.0,10.3,-1.2,149.2
49.0,-220.49019607843138,232.0,-95.0,47.05,-36.72,102.23
49.05,-140.49019607843138,248.0,-49.0,26.89,-57.93,57.99
49.1,-188.49019607843138,166.0,-33.0,5.19,-81.1,15.99
49.15,-156.49019607843138,133.0,-110.0,36.8,-96.4,-20.29
49.2,-172.49019607843138,199.0,-249.0,64.94,-93.88,-51.37
49.25,-283.4901960784314,215.0,70.50980392156863,33.89,-83.76,-86.37
49.3,120.01960784313725,101.0,-52.490196078431374,29.76,-68.08,-87.32
49.35,72.01960784313725,84.0,-190.49019607843138,13.24,-59.12,-78.01
49.4,-252.49019607843138,35.0,298.01960784313724,-70.05,-23.91,-97.71
49.45,295.01960784313724,-62.0,-144.49019607843138,-137.07,7.37,-103.7
49.5,311.01960784313724,68.0,-36.490196078431374,-50.76,6.0,-81.33
49.55,-220.49019607843138,-280.5098039215686,-52.490196078431374,22.66,2.12,-58.72
49.6,-156.49019607843138,-149.50980392156862,-6.490196078431373,24.86,4.25,-34.33
49.65,-172.49019607843138,-247.50980392156862,101.50980392156863,0.05,2.54,-8.01
49.7,-204.49019607843138,313.0,132.50980392156862,13.91,-4.7,19.35
49.75,-188.49019607843138,-263.5098039215686,101.50980392156863,52.2,-4.52,46.44
49.8,-188.49019607843138,-263.5098039215686,86.50980392156863,66.44,-6.45,58.83
49.85,-156.49019607843138,313.0,86.50980392156863,78.1,-10.68,66.15
49.9,-188.49019607843138,281.0,70.50980392156863,93.81,-13.03,74.93
49.95,-172.49019607843138,297.0,86.50980392156863,99.2,-18.03,73.88
50.0,-156.49019607843138,248.0,147.50980392156862,109.98,-17.02,30.55
50.05,311.01960784313724,215.0,147.50980392156862,113.66,13.11,33.49
50.1,41.01960784313726,-312.5098039215686,24.50980392156863,135.81,34.0,62.16
50.15,216.01960784313727,-280.5098039215686,193.50980392156862,96.72,48.11,79.1
50.2,-315.4901960784314,264.0,-310.0,36.27,55.74,73.29
50.25,247.01960784313727,199.0,-233.0,22.45,49.05,62.3
50.3,247.01960784313727,313.0,-203.0,23.99,35.89,69.02
50.35,184.01960784313727,-231.50980392156862,-95.0,33.86,2.4,85.29
50.4,247.01960784313727,-247.50980392156862,-3.0,56.78,-35.53,98.84
50.45,295.01960784313724,-214.50980392156862,-33.0,96.23,-67.14,108.6
50.5,295.01960784313724,-198.50980392156862,-18.0,111.87,-82.33,116.2
50.55,279.01960784313724,-247.50980392156862,-64.0,92.48,-87.96,117.67
50.6,216.01960784313727,313.0,-110.0,78.62,-95.38,115.95
50.65,184.01960784313727,281.0,-172.0,95.39,-97.94,120.61
50.7,136.01960784313727,313.0,-295.0,107.99,-83.94,124.98
50.75,120.01960784313725,297.0,270.5098039215686,65.81,-54.5,105.91
50.8,104.01960784313725,150.0,178.50980392156862,13.66,-39.31,85.96
50.85,263.01960784313724,19.0,55.509803921568626,30.71,-38.89,63.87
50.9,-156.49019607843138,52.0,-21.49019607843137,27.1,-27.52,23.83
50.95,-140.49019607843138,35.0,-21.49019607843137,23.08,-20.1,-38.42
51.0,-220.49019607843138,52.0,70.50980392156863,39.42,-26.19,-72.51
51.05,-283.4901960784314,133.0,-36.490196078431374,52.06,-31.02,-75.49
51.1,-188.49019607843138,183.0,-6.490196078431373,40.51,-25.98,-80.25
51.15,-172.49019607843138,150.0,70.50980392156863,13.38,-17.12,-86.9
51.2,-220.49019607843138,183.0,132.50980392156862,4.63,-17.93,-75.63
51.25,-267.4901960784314,297.0,101.50980392156863,29.94,-19.54,-46.19
51.3,-204.49019607843138,-296.5098039215686,101.50980392156863,35.5,-11.91,-17.46
51.35,-188.49019607843138,313.0,86.50980392156863,10.3,3.38,3.64
51.4,-220.49019607843138,264.0,132.50980392156862,-16.64,14.75,28.07
51.45,-188.49019607843138,248.0,101.50980392156863,-16.57,16.08,47.67
51.5,-172.49019607843138,264.0,101.50980392156863,-7.12,5.62,47.0
51.55,-140.49019607843138,264.0,116.50980392156863,0.01,-5.4,16.69
51.6,-252.49019607843138,248.0,147.50980392156862,16.18,-0.85,5.07
51.65,184.01960784313727,-296.5098039215686,86.50980392156863,37.71,4.18,47.28
51.7,295.01960784313724,-280.5098039215686,163.50980392156862,49.78,0.61,98.63
51.75,-220.49019607843138,297.0,209.50980392156862,38.76,-0.11,96.98
51.8,-299.4901960784314,215.0,301.5098039215686,18.46,0.96,63.52
51.85,216.01960784313727,199.0,286.5098039215686,38.93,-3.16,34.09
51.9,311.01960784313724,281.0,-310.0,43.24,-10.58,39.76
51.95,-267.4901960784314,281.0,-279.0,47.79,-31.79,43.61
52.0,-204.49019607843138,248.0,-233.0,64.24,-44.49,27.16
52.05,-204.49019607843138,281.0,-279.0,65.25,-42.53,11.69
52.1,-236.49019607843138,264.0,-310.0,40.93,-36.72,-1.18
52.15,-283.4901960784314,183.0,316.5098039215686,19.68,-32.73,-6.33
52.2,-267.4901960784314,232.0,224.50980392156862,16.71,-31.33,-7.31
52.25,-252.49019607843138,248.0,224.50980392156862,22.41,-25.35,-14.83
52.3,-283.4901960784314,215.0,178.50980392156862,19.93,-8.23,-23.34
52.35,-315.4901960784314,215.0,101.50980392156863,-3.27,16.78,-26.52
52.4,-315.4901960784314,166.0,70.50980392156863,-59.2,42.33,-44.16
52.45,311.01960784313724,117.0,116.50980392156863,-139.03,71.59,-59.95
52.5,-6.980392156862745,117.0,132.50980392156862,-79.81,39.43,-25.3
52.55,-220.49019607843138,-296.5098039215686,163.50980392156862,31.93,11.22,1.82
52.6,97.50980392156863,-247.50980392156862,162.50980392156862,17.34,26.83,-15.32
52.65,-140.49019607843138,199.0,224.50980392156862,-75.12,35.3,-29.74
52.7,-252.49019607843138,52.0,255.50980392156862,-55.98,2.22,-10.0
52.75,-108.49019607843137,264.0,239.50980392156862,25.18,-25.38,-2.09
52.8,-29.49019607843137,-280.5098039215686,178.50980392156862,34.77,-27.52,-8.57
52.85,-140.49019607843138,215.0,162.50980392156862,12.72,-32.28,-15.15
52.9,-124.49019607843137,166.0,147.50980392156862,30.74,-39.31,-11.05
52.95,-140.49019607843138,248.0,55.509803921568626,43.48,-27.03,-0.2
53.0,-204.49019607843138,232.0,-6.490196078431373,17.2,-13.87,5.35
53.05,-220.49019607843138,150.0,39.509803921568626,4.67,-5.29,8.22
53.1,-236.49019607843138,166.0,39.509803921568626,10.34,-2.95,11.02
53.15,-204.49019607843138,215.0,70.50980392156863,9.71,-3.75,10.04
53.2,-140.49019607843138,199.0,101.50980392156863,9.39,-12.4,-9.48
53.25,-172.49019607843138,215.0,116.50980392156863,26.12,-18.21,-35.13
53.3,247.01960784313727,264.0,55.509803921568626,61.26,-4.1,-7.97
53.35,200.01960784313727,-247.50980392156862,-36.490196078431374,91.33,7.4,44.87
53.4,-204.49019607843138,-296.5098039215686,101.50980392156863,49.15,35.12,58.83
53.45,-283.4901960784314,183.0,209.50980392156862,-7.82,53.01,53.2
53.5,216.01960784313727,199.0,209.50980392156862,-4.56,49.89,64.61
53.55,231.01960784313727,281.0,301.5098039215686,13.91,31.34,84.56
53.6,311.01960784313724,313.0,-279.0,35.01,8.14,88.16
53.65,-252.49019607843138,297.0,-249.0,41.24,-5.82,73.11
53.7,-252.49019607843138,264.0,-249.0,45.23,-19.85,46.93
53.75,-172.49019607843138,232.0,-249.0,36.2,-28.36,22.61
53.8,-172.49019607843138,215.0,-249.0,32.25,-38.3,5.91
53.85,-204.49019607843138,199.0,-264.0,51.78,-50.34,-4.65
53.9,-252.49019607843138,264.0,270.5098039215686,69.84,-41.48,-5.94
53.95,-299.4901960784314,264.0,147.50980392156862,13.24,-11.24,-13.43
54.0,247.01960784313727,150.0,101.50980392156863,-80.58,8.52,-26.84
54.05,120.01960784313725,35.0,116.50980392156863,-57.48,-11.94,-8.25
54.1,-283.4901960784314,183.0,39.509803921568626,61.16,-37.0,12.25
54.15,34.509803921568626,-280.5098039215686,-21.49019607843137,34.28,-9.39,-6.22
54.2,-156.49019607843138,133.0,39.509803921568626,-46.84,10.45,-21.94
54.25,-220.49019607843138,3.0,70.50980392156863,-28.71,2.5,-12.42
54.3,-108.49019607843137,215.0,24.50980392156863,5.19,-2.88,-11.47
54.35,-108.49019607843137,248.0,86.50980392156863,7.64,-6.17,-18.44
54.4,-140.49019607843138,183.0,101.50980392156863,17.58,-17.54,-19.1
54.45,-124.49019607843137,232.0,132.50980392156862,36.31,-20.76,-13.01
54.5,-140.49019607843138,264.0,70.50980392156863,32.98,-14.6,-4.82
54.55,-140.49019607843138,199.0,86.50980392156863,11.56,-6.13,4.23
54.6,-188.49019607843138,183.0,116.50980392156863,10.76,-9.18,17.95
54.65,-124.49019607843137,248.0,132.50980392156862,17.76,-19.22,25.76
54.7,-93.49019607843137,248.0,147.50980392156862,23.6,-32.21,10.22
54.75,-45.490196078431374,248.0,209.50980392156862,31.23,-45.12,-26.35
54.8,247.01960784313727,281.0,193.50980392156862,71.94,-29.9,-3.49
54.85,-70.98039215686275,-182.50980392156862,70.50980392156863,150.65,-32.28,97.75
54.9,-315.4901960784314,-182.50980392156862,239.50980392156862,92.17,-8.13,127.26
54.95,216.01960784313727,232.0,-172.0,8.27,-4.98,109.62
55.0,152.01960784313727,150.0,-156.0,4.63,-4.98,92.26
55.05,200.01960784313727,248.0,-79.0,34.98,-10.61,87.08
55.1,311.01960784313724,297.0,-95.0,34.03,-16.28,73.6
55.15,-283.4901960784314,199.0,-141.0,38.62,-25.31,34.54
55.2,-188.49019607843138,183.0,-218.0,29.69,-12.19,-2.9
55.25,-315.4901960784314,183.0,-295.0,25.11,-4.24,-28.38
55.3,311.01960784313724,199.0,-295.0,6.24,-6.34,-40.28
55.35,311.01960784313724,199.0,-310.0,13.59,-10.54,-43.11
55.4,-283.4901960784314,248.0,255.50980392156862,23.08,3.31,-49.1
55.45,311.01960784313724,313.0,255.50980392156862,-8.24,20.25,-57.46
55.5,-315.4901960784314,281.0,239.50980392156862,-65.85,30.05,-83.43
55.55,216.01960784313727,199.0,270.5098039215686,-107.81,42.93,-87.39
55.6,9.019607843137255,313.0,239.50980392156862,-41.0,11.5,-39.19
55.65,-156.49019607843138,-182.50980392156862,239.50980392156862,29.45,-2.28,-5.35
55.7,-108.49019607843137,-263.5098039215686,209.50980392156862,-22.27,20.74,-15.01
55.75,-220.49019607843138,150.0,239.50980392156862,-58.88,18.81,-13.5
55.8,-188.49019607843138,150.0,239.50980392156862,-13.35,-4.31,4.83
55.85,-188.49019607843138,281.0,147.50980392156862,52.58,-20.76,26.07
55.9,-188.49019607843138,264.0,70.50980392156863,38.51,-14.36,23.59
55.95,-188.49019607843138,101.0,101.50980392156863,33.23,-12.22,16.69
56.0,-188.49019607843138,101.0,86.50980392156863,50.1,-15.41,16.66
56.05,-188.49019607843138,183.0,86.50980392156863,58.22,-17.96,17.25
56.1,-220.49019607843138,183.0,101.50980392156863,64.62,-20.41,16.83
56.15,-204.49019607843138,183.0,116.50980392156863,76.14,-25.45,16.2
56.2,-172.49019607843138,199.0,163.50980392156862,83.14,-25.66,16.97
56.25,-156.49019607843138,232.0,178.50980392156862,80.58,-23.28,15.64
56.3,-172.49019607843138,215.0,209.50980392156862,78.24,-20.62,11.51
56.35,-204.49019607843138,264.0,193.50980392156862,84.43,-23.0,7.14
56.4,-220.49019607843138,297.0,178.50980392156862,102.25,-15.83,1.68
56.45,247.01960784313727,-296.5098039215686,132.50980392156862,113.8,10.27,37.94
56.5,152.01960784313727,-214.50980392156862,9.509803921568627,101.27,35.93,78.26
56.55,231.01960784313727,-280.5098039215686,209.50980392156862,53.84,52.38,98.52
56.6,263.01960784313724,264.0,316.5098039215686,15.27,51.33,108.29
56.65,247.01960784313727,264.0,-279.0,30.74,33.44,108.39
56.7,295.01960784313724,313.0,-172.0,64.2,15.56,99.99
56.75,279.01960784313724,-312.5098039215686,-95.0,66.23,-1.3,89.81
56.8,263.01960784313724,313.0,-64.0,43.03,-27.17,76.89
56.85,311.01960784313724,232.0,-3.0,35.36,-56.57,55.44
56.9,311.01960784313724,264.0,12.0,48.84,-83.38,35.52
56.95,-299.4901960784314,313.0,-3.0,68.96,-106.93,21.91
57.0,-315.4901960784314,313.0,-64.0,99.55,-122.51,20.19
57.05,279.01960784313724,-296.5098039215686,-156.0,134.52,-128.32,32.86
57.1,200.01960784313727,-231.50980392156862,-249.0,162.17,-111.27,65.06
57.15,136.01960784313727,-247.50980392156862,301.5098039215686,144.74,-82.22,91.17
57.2,120.01960784313725,297.0,239.50980392156862,101.69,-48.83,104.54
57.25,136.01960784313727,183.0,193.50980392156862,70.68,-27.2,95.76
57.3,263.01960784313724,150.0,163.50980392156862,40.12,-4.66,58.97
57.35,295.01960784313724,101.0,178.50980392156862,28.43,13.46,6.86
57.4,-283.4901960784314,133.0,224.50980392156862,21.33,27.77,-35.94
57.45,-252.49019607843138,150.0,255.50980392156862,-5.65,42.37,-72.48
57.5,-315.4901960784314,166.0,286.5098039215686,-47.37,53.64,-94.25
57.55,263.01960784313724,215.0,-249.0,-68.68,48.84,-92.67
57.6,247.01960784313727,281.0,-218.0,-33.33,19.51,-62.82
57.65,311.01960784313724,-263.5098039215686,-233.0,21.47,-7.36,-38.7
57.7,-220.49019607843138,-198.50980392156862,-249.0,41.14,-17.37,-29.99
57.75,-252.49019607843138,-280.5098039215686,316.5098039215686,3.76,-11.35,-27.43
57.8,-315.4901960784314,232.0,316.5098039215686,-58.29,-3.86,-22.01
57.85,-267.4901960784314,183.0,193.50980392156862,-22.13,-15.79,-3.74
57.9,-220.49019607843138,281.0,132.50980392156862,47.16,-23.98,15.82
57.95,-188.49019607843138,-296.5098039215686,-36.490196078431374,78.59,-15.83,31.15
58.0,-220.49019607843138,248.0,-113.49019607843137,69.14,-1.44,36.92
58.05,-188.49019607843138,133.0,-36.490196078431374,64.27,12.2,37.52
58.1,-236.49019607843138,150.0,-36.490196078431374,61.79,27.39,34.54
58.15,-315.4901960784314,150.0,9.509803921568627,44.88,41.39,33.84
58.2,311.01960784313724,166.0,116.50980392156863,15.55,52.83,35.52
58.25,-283.4901960784314,166.0,209.50980392156862,-10.86,51.96,34.4
58.3,-220.49019607843138,133.0,-310.0,-23.53,36.7,30.76
58.35,-267.4901960784314,215.0,-249.0,-1.9,10.38,39.37
58.4,-267.4901960784314,264.0,-295.0,12.61,-12.75,46.23
58.45,-220.49019607843138,232.0,-280.0,10.27,-23.98,36.78
58.5,-188.49019607843138,166.0,270.5098039215686,-3.58,-29.06,11.65
58.55,-156.49019607843138,117.0,239.50980392156862,-7.96,-32.87,-16.23
58.6,-140.49019607843138,101.0,178.50980392156862,8.97,-37.67,-42.76
58.65,-188.49019607843138,166.0,39.509803921568626,17.34,-36.83,-52.14
58.7,-252.49019607843138,150.0,-36.490196078431374,4.49,-31.82,-53.68
58.75,-220.49019607843138,117.0,-36.490196078431374,-9.32,-19.4,-55.12
58.8,-188.49019607843138,133.0,-36.490196078431374,-21.08,-5.19,-52.88
58.85,-236.49019607843138,183.0,55.509803921568626,-22.69,-4.7,-43.22
58.9,-252.49019607843138,199.0,86.50980392156863,-12.4,-7.81,-31.04
58.95,-220.49019607843138,248.0,101.50980392156863,-0.29,-11.21,-21.48
59.0,-156.49019607843138,264.0,163.50980392156862,0.64,-12.01,-14.9
59.05,-188.49019607843138,248.0,101.50980392156863,6.66,-15.48,-6.68
59.1,-140.49019607843138,281.0,101.50980392156863,13.59,-14.95,0.7
59.15,-172.49019607843138,248.0,70.50980392156863,16.78,-12.85,2.48
59.2,-299.4901960784314,297.0,39.509803921568626,18.95,0.75,14.24
59.25,200.01960784313727,281.0,-6.490196078431373,23.01,14.93,58.06
59.3,311.01960784313724,297.0,70.50980392156863,25.77,19.16,87.22
59.35,-236.49019607843138,264.0,147.50980392156862,25.63,22.1,85.92
59.4,-267.4901960784314,232.0,193.50980392156862,27.8,26.76,74.72
59.45,-315.4901960784314,248.0,239.50980392156862,29.69,28.58,57.96
59.5,295.01960784313724,215.0,316.5098039215686,20.14,24.27,44.13
59.55,247.01960784313727,215.0,-279.0,31.09,2.22,39.72
59.6,-299.4901960784314,281.0,-233.0,46.11,-17.3,40.11
59.65,-252.49019607843138,281.0,-233.0,67.91,-36.23,37.48
59.7,-236.49019607843138,313.0,-218.0,81.6,-49.11,33.28
59.75,-204.49019607843138,281.0,-233.0,64.87,-52.82,24.01
59.8,-220.49019607843138,248.0,-279.0,36.13,-49.85,9.41
59.85,-220.49019607843138,215.0,316.5098039215686,18.35,-43.06,-3.18
59.9,-252.49019607843138,183.0,239.50980392156862,9.78,-32.98,-9.83
59.95,-299.4901960784314,199.0,147.50980392156862,7.99,-23.39,-12.63
60.0,-299.4901960784314,183.0,101.50980392156863,6.52,-9.84,-18.4
60.05,-315.4901960784314,166.0,9.509803921568627,-5.58,15.31,-40.28
60.1,136.01960784313727,183.0,-21.49019607843137,-31.48,39.6,-29.71
60.15,88.01960784313725,166.0,-52.490196078431374,-31.2,52.73,0.03
60.2,-188.49019607843138,166.0,9.509803921568627,-71.69,80.87,11.93
60.25,-236.49019607843138,84.0,163.50980392156862,-123.74,85.1,15.01
60.3,-315.4901960784314,68.0,255.50980392156862,-91.96,53.04,18.9
60.35,-236.49019607843138,166.0,286.5098039215686,-25.49,18.99,11.06
60.4,-61.490196078431374,215.0,316.5098039215686,-0.33,-4.7,-16.13
60.45,34.509803921568626,183.0,-310.0,43.87,-18.7,-1.25
60.5,-29.49019607843137,-231.50980392156862,193.50980392156862,135.74,-21.74,51.1
60.55,-29.49019607843137,95.49019607843137,-52.490196078431374,192.34,11.39,90.05
60.6,2.5098039215686274,13.490196078431373,-298.4901960784314,223.8,38.31,99.92
60.65,81.50980392156863,-116.50980392156863,298.01960784313724,130.11,62.46,101.85
60.7,81.50980392156863,166.0,-252.49019607843138,78.66,71.63,102.97
60.75,81.50980392156863,117.0,-283.4901960784314,33.68,53.25,98.35
60.8,129.50980392156862,52.0,-129.49019607843138,27.31,13.0,82.39
60.85,193.50980392156862,101.0,-206.49019607843138,26.19,7.79,89.18
60.9,129.50980392156862,281.0,313.01960784313724,31.55,4.71,95.93
60.95,161.50980392156862,166.0,-144.49019607843138,56.47,-10.96,87.39
61.0,145.50980392156862,232.0,-206.49019607843138,43.94,-17.93,71.36
61.05,129.50980392156862,264.0,-160.49019607843138,38.69,-16.84,50.89
61.1,97.50980392156863,297.0,-236.49019607843138,-26.33,-13.03,34.26
61.15,161.50980392156862,215.0,-129.49019607843138,-65.6,-18.21,18.48
61.2,177.50980392156862,133.0,-83.49019607843137,-92.27,-45.02,-7.66
61.25,240.50980392156862,199.0,24.50980392156863,-169.2,-80.75,-57.01
61.3,224.50980392156862,84.0,178.50980392156862,-172.18,-94.54,-110.28
61.35,49.509803921568626,183.0,193.50980392156862,-98.64,-94.54,-152.98
61.4,-172.49019607843138,297.0,163.50980392156862,2.88,-84.95,-171.25
61.45,216.01960784313727,-231.50980392156862,70.50980392156863,52.62,-73.61,-153.43
61.5,104.01960784313725,-247.50980392156862,9.509803921568627,26.79,-47.75,-115.98
61.55,72.01960784313725,264.0,39.509803921568626,-53.56,-12.08,-92.22
61.6,41.01960784313726,133.0,116.50980392156863,-136.3,31.76,-76.57
61.65,-101.98039215686275,150.0,116.50980392156863,-160.35,58.57,-42.13
61.7,-315.4901960784314,264.0,132.50980392156862,-118.28,63.47,-9.02
61.75,-61.490196078431374,281.0,255.50980392156862,-106.17,74.11,0.63
61.8,-236.49019607843138,248.0,-295.0,-144.39,64.24,14.42
61.85,-236.49019607843138,215.0,-280.0,-105.92,28.3,29.96
61.9,-77.49019607843137,264.0,316.5098039215686,-30.04,-2.98,23.97
61.95,-45.490196078431374,281.0,209.50980392156862,11.21,-17.16,0.31
62.0,-61.490196078431374,183.0,101.50980392156863,-4.11,-25.73,-27.99
62.05,-124.49019607843137,101.0,101.50980392156863,-6.56,-34.17,-33.28
62.1,-140.49019607843138,84.0,9.509803921568627,9.74,-38.72,-33.49
62.15,-108.49019607843137,117.0,-36.490196078431374,15.38,-35.53,-41.08
62.2,-140.49019607843138,101.0,-36.490196078431374,2.57,-21.15,-52.49
62.25,-236.49019607843138,117.0,-6.490196078431373,-4.84,-19.92,-53.3
62.3,-252.49019607843138,183.0,39.509803921568626,0.29,-20.97,-56.06
62.35,200.01960784313727,232.0,24.50980392156863,17.41,4.29,-20.64
62.4,72.01960784313725,-263.5098039215686,-113.49019607843137,66.41,9.82,38.04
62.45,-93.49019607843137,-214.50980392156862,86.50980392156863,89.33,21.37,64.71
62.5,-236.49019607843138,281.0,209.50980392156862,48.77,56.93,57.89
62.55,200.01960784313727,248.0,193.50980392156862,-5.33,73.76,59.53
62.6,152.01960784313727,248.0,270.5098039215686,-35.19,67.25,75.88
62.65,311.01960784313724,264.0,-264.0,-23.36,43.84,90.47
62.7,-283.4901960784314,-312.5098039215686,-172.0,22.62,13.28,88.13
62.75,-283.4901960784314,-263.5098039215686,-187.0,43.31,-11.49,73.88
62.8,-299.4901960784314,-312.5098039215686,-187.0,23.71,-28.32,65.45
62.85,-236.49019607843138,281.0,-156.0,1.73,-42.25,55.82
62.9,-204.49019607843138,248.0,-187.0,-2.25,-51.67,40.91
62.95,-172.49019607843138,297.0,-310.0,20.28,-60.0,24.99
63.0,-172.49019607843138,297.0,239.50980392156862,58.25,-65.07,4.97
63.05,-188.49019607843138,297.0,116.50980392156863,78.27,-52.82,-10.63
63.1,-236.49019607843138,248.0,-67.49019607843137,46.77,-37.46,-42.34
63.15,295.01960784313724,84.0,-36.490196078431374,-21.15,-10.54,-68.42
63.2,88.01960784313725,19.0,-67.49019607843137,-32.14,8.84,-64.18
63.25,-267.4901960784314,133.0,-144.49019607843138,-19.86,37.82,-52.67
63.3,-204.49019607843138,199.0,-21.49019607843137,-75.3,61.02,-46.86
63.35,-299.4901960784314,84.0,147.50980392156862,-119.43,63.72,-37.02
63.4,-299.4901960784314,150.0,239.50980392156862,-96.33,49.93,-25.47
63.45,-172.49019607843138,248.0,255.50980392156862,-42.19,31.06,-22.18
63.5,-108.49019607843137,-312.5098039215686,286.5098039215686,-33.82,12.09,-24.63
63.55,-140.49019607843138,248.0,-310.0,-35.12,-7.81,-25.82
63.6,-124.49019607843137,215.0,301.5098039215686,-12.96,-29.55,-28.69
63.65,-61.490196078431374,264.0,270.5098039215686,7.36,-41.94,-34.61
63.7,-77.49019607843137,232.0,193.50980392156862,8.73,-48.66,-44.09
63.75,-140.49019607843138,215.0,147.50980392156862,14.61,-52.44,-46.09
63.8,-188.49019607843138,215.0,70.50980392156863,26.05,-50.93,-39.72
63.85,-204.49019607843138,248.0,-21.49019607843137,27.07,-43.76,-34.78
63.9,311.01960784313724,248.0,-52.490196078431374,5.58,-17.65,-29.22
63.95,120.01960784313725,248.0,-83.49019607843137,-30.95,30.64,18.44
64.0,120.01960784313725,264.0,-67.49019607843137,-23.43,54.37,78.47
64.05,-315.4901960784314,297.0,101.50980392156863,-41.87,80.62,108.74
64.1,136.01960784313727,215.0,209.50980392156862,-86.85,94.06,132.75
64.15,41.01960784313726,183.0,286.5098039215686,-78.62,77.37,144.76
64.2,184.01960784313727,215.0,-310.0,-42.78,58.26,128.06
64.25,295.01960784313724,183.0,-279.0,-28.26,46.6,91.21
64.3,-236.49019607843138,166.0,-249.0,-59.69,41.98,33.53
64.35,-124.49019607843137,52.0,-218.0,-101.44,40.37,-32.47
64.4,2.5098039215686274,52.0,-141.0,-104.8,40.9,-79.02
64.45,-45.490196078431374,281.0,-126.0,-102.81,48.0,-113.95
64.5,-172.49019607843138,-198.50980392156862,-172.0,-106.38,47.79,-127.92
64.55,-188.49019607843138,-84.50980392156863,-79.0,-81.35,42.72,-129.35
64.6,-236.49019607843138,95.49019607843137,-110.0,-79.67,42.3,-118.57
64.65,-236.49019607843138,160.49019607843138,-64.0,-89.51,45.8,-98.66
64.7,-252.49019607843138,128.49019607843138,-95.0,-101.51,56.44,-82.1
64.75,-236.49019607843138,128.49019607843138,-3.0,-118.87,66.27,-65.62
64.8,-267.4901960784314,30.49019607843137,89.0,-137.56,67.36,-49.62
64.85,-156.49019607843138,30.49019607843137,135.0,-122.9,54.06,-51.27
64.9,-220.49019607843138,62.490196078431374,196.0,-100.11,21.3,-57.22
64.95,-188.49019607843138,46.490196078431374,58.0,-16.88,-64.62,-35.1
65.0,81.50980392156863,30.49019607843137,-141.0,107.78,-126.01,7.52
65.05,193.50980392156862,30.49019607843137,255.50980392156862,124.02,-126.22,45.18
65.1,-29.49019607843137,-247.50980392156862,178.50980392156862,1.8,-99.23,54.98
65.15,-29.49019607843137,-29.0,-187.0,-23.46,-66.54,36.61
65.2,-220.49019607843138,68.0,-172.0,12.65,-39.1,11.09
65.25,263.01960784313724,183.0,-110.0,29.52,-19.26,8.36
65.3,168.01960784313727,313.0,-64.0,43.69,0.58,23.76
65.35,72.01960784313725,-231.50980392156862,-18.0,13.91,23.43,47.07
65.4,-6.980392156862745,-149.50980392156862,-49.0,-30.36,44.57,67.37
65.45,120.01960784313725,-116.50980392156863,-3.0,-94.44,131.48,59.92
65.5,216.01960784313727,-18.50980392156863,-279.0,90.07,33.9,146.26
65.55,65.50980392156863,-143.52941176470588,316.5098039215686,-54.82,68.27,74.79
65.6,-38.98039215686274,-296.5098039215686,196.0,-32.28,74.95,119.84
65.65,-124.49019607843137,-122.01960784313725,-233.0,59.09,64.42,129.67
65.7,-220.49019607843138,-2.5098039215686274,-18.0,105.85,49.89,85.85
65.75,-13.490196078431373,-18.50980392156863,43.0,117.19,45.1,52.25
65.8,145.50980392156862,30.49019607843137,-49.0,139.94,21.12,19.32
65.85,256.5098039215686,209.49019607843138,-203.0,67.81,21.3,-45.49
65.9,288.5098039215686,-100.50980392156863,-218.0,88.56,15.66,-62.75
65.95,-290.0,46.490196078431374,224.50980392156862,206.09,-2.07,-43.18
66.0,-163.0,275.4901960784314,-6.490196078431373,187.54,-10.72,-17.63
66.05,-227.0,62.490196078431374,101.50980392156863,105.71,-6.52,9.45
66.1,288.5098039215686,-247.50980392156862,-113.49019607843137,27.56,-11.07,31.29
66.15,224.50980392156862,-296.5098039215686,-175.49019607843138,7.29,-13.06,19.32
66.2,97.50980392156863,-296.5098039215686,-175.49019607843138,77.19,-39.7,68.32
66.25,320.5098039215686,-280.5098039215686,116.50980392156863,0.47,-34.87,65.38
66.3,320.5098039215686,-94.0,-310.0,108.9,-80.93,137.16
66.35,76.98039215686275,155.98039215686273,137.0392156862745,26.68,-54.01,66.74
66.4,295.01960784313724,68.0,-310.0,10.34,-11.52,64.22
66.45,18.50980392156863,-247.50980392156862,52.01960784313726,-1.24,19.51,45.43
66.5,256.5098039215686,313.0,-236.49019607843138,-0.92,23.36,13.19
66.55,161.50980392156862,-263.5098039215686,55.509803921568626,-10.69,23.22,-4.4
66.6,224.50980392156862,-165.50980392156862,-52.490196078431374,-3.65,15.77,-10.14
66.65,256.5098039215686,-149.50980392156862,-6.490196078431373,3.09,5.69,-5.98
66.7,320.5098039215686,-149.50980392156862,-98.49019607843137,3.65,2.08,-8.81
66.75,304.5098039215686,-198.50980392156862,-129.49019607843138,6.73,1.66,-6.99
66.8,-290.0,-165.50980392156862,-190.49019607843138,-7.92,4.71,-6.75
66.85,-275.0,-198.50980392156862,-206.49019607843138,-9.99,4.71,-7.03
66.9,320.5098039215686,-133.50980392156862,-221.49019607843138,-24.62,6.63,-4.47
66.95,304.5098039215686,-198.50980392156862,-175.49019607843138,-29.55,5.09,-1.39
67.0,288.5098039215686,-133.50980392156862,-129.49019607843138,-111.17,3.17,-7.1
67.05,272.5098039215686,281.0,39.509803921568626,-120.34,8.28,-10.04
67.1,224.50980392156862,-214.50980392156862,-52.490196078431374,-44.99,-7.39,-3.49
67.15,-275.0,242.49019607843138,-175.49019607843138,-12.09,7.61,4.86
67.2,-306.0,79.49019607843137,-83.49019607843137,-13.77,20.84,4.27
67.25,-290.0,46.490196078431374,9.509803921568627,-16.95,23.36,4.51
67.3,-306.0,62.490196078431374,-6.490196078431373,-28.99,20.46,-1.18
67.35,288.5098039215686,-2.5098039215686274,86.50980392156863,-19.37,12.06,-4.16
67.4,320.5098039215686,62.490196078431374,86.50980392156863,3.37,3.34,-2.58
67.45,-306.0,79.49019607843137,101.50980392156863,8.76,-3.33,0.84
67.5,304.5098039215686,111.49019607843137,116.50980392156863,-5.44,-6.17,2.94
67.55,-290.0,95.49019607843137,101.50980392156863,-8.2,-8.02,6.58
67.6,-275.0,111.49019607843137,70.50980392156863,1.38,-7.25,7.8
67.65,-306.0,111.49019607843137,70.50980392156863,0.29,-1.62,4.69
67.7,320.5098039215686,62.490196078431374,39.509803921568626,-1.45,4.01,0.77
67.75,-306.0,46.490196078431374,39.509803921568626,3.02,4.46,-0.69
67.8,320.5098039215686,62.490196078431374,55.509803921568626,-0.78,1.73,-2.27
67.85,320.5098039215686,62.490196078431374,55.509803921568626,3.09,-1.3,-1.29
67.9,-306.0,79.49019607843137,86.50980392156863,7.61,-4.1,1.85
67.95,-306.0,111.49019607843137,116.50980392156863,0.89,-3.58,2.69
68.0,-290.0,79.49019607843137,70.50980392156863,2.36,-3.16,3.39
68.05,-275.0,95.49019607843137,70.50980392156863,2.46,-2.53,3.18
68.1,-306.0,79.49019607843137,24.50980392156863,0.85,-1.51,1.82
68.15,-306.0,79.49019607843137,55.509803921568626,4.25,-0.15,1.89
68.2,304.5098039215686,62.490196078431374,55.509803921568626,5.16,2.78,4.06
68.25,304.5098039215686,111.49019607843137,55.509803921568626,0.22,3.8,7.35
68.3,320.5098039215686,79.49019607843137,24.50980392156863,-1.1,4.32,7.8
68.35,-290.0,95.49019607843137,70.50980392156863,-0.5,4.04,6.33
68.4,-290.0,79.49019607843137,70.50980392156863,0.43,1.17,4.3
68.45,-275.0,62.490196078431374,55.509803921568626,0.26,-1.3,2.2
68.5,-275.0,62.490196078431374,55.509803921568626,1.06,-2.46,0.77
68.55,-275.0,62.490196078431374,55.509803921568626,0.33,-1.13,-0.52
68.6,-290.0,62.490196078431374,55.509803921568626,-1.03,-0.25,0.28
68.65,-290.0,95.49019607843137,24.50980392156863,-0.01,-0.99,1.08
68.7,-259.0,95.49019607843137,55.509803921568626,1.34,-1.09,2.03
68.75,-275.0,79.49019607843137,70.50980392156863,-2.53,0.96,1.19
68.8,-275.0,62.490196078431374,9.509803921568627,-0.64,0.75,1.47
68.85,-290.0,79.49019607843137,39.509803921568626,-0.57,1.03,0.8
68.9,-290.0,95.49019607843137,55.509803921568626,-1.2,1.0,0.91
68.95,-306.0,79.49019607843137,55.509803921568626,-0.33,0.33,0.49
69.0,-290.0,79.49019607843137,70.50980392156863,-0.71,0.02,0.56
69.05,-275.0,79.49019607843137,39.509803921568626,-0.61,0.61,0.45
69.1,-290.0,79.49019607843137,24.50980392156863,-1.13,2.54,0.59
69.15,-259.0,95.49019607843137,55.509803921568626,0.47,2.29,0.73
69.2,-275.0,79.49019607843137,70.50980392156863,-0.92,1.59,0.63
69.25,-306.0,95.49019607843137,39.509803921568626,-0.61,0.93,0.38
69.3,-259.0,79.49019607843137,55.509803921568626,-0.15,0.26,0.7
69.35,-275.0,62.490196078431374,55.509803921568626,-0.29,1.0,-0.13
69.4,-306.0,79.49019607843137,39.509803921568626,1.1,1.28,0.14
69.45,-275.0,95.49019607843137,39.509803921568626,0.96,1.8,1.22
69.5,-275.0,95.49019607843137,55.509803921568626,-1.03,1.28,1.5
69.55,-275.0,95.49019607843137,39.509803921568626,1.52,-0.36,1.64
69.6,-259.0,95.49019607843137,70.50980392156863,-0.12,-0.32,0.91
69.65,-290.0,79.49019607843137,55.509803921568626,1.9,-1.2,1.19
69.7,-259.0,79.49019607843137,86.50980392156863,0.92,-0.25,0.98
69.75,-290.0,79.49019607843137,55.509803921568626,-0.05,0.58,1.26
69.8,-290.0,95.49019607843137,39.509803921568626,0.82,1.42,1.36
69.85,-259.0,95.49019607843137,24.50980392156863,-1.24,1.73,-1.04
69.9,-259.0,79.49019607843137,70.50980392156863,-0.15,0.33,-2.13
69.95,-243.0,79.49019607843137,70.50980392156863,2.22,-0.67,-0.9
70.0,-259.0,79.49019607843137,70.50980392156863,1.66,-1.09,0.94
70.05,-259.0,111.49019607843137,55.509803921568626,-0.08,-0.18,1.99
70.1,-306.0,95.49019607843137,39.509803921568626,0.12,0.54,1.26
70.15,-275.0,62.490196078431374,70.50980392156863,-1.59,0.58,0.03
70.2,-259.0,79.49019607843137,55.509803921568626,-2.08,-0.46,-1.81
70.25,-259.0,79.49019607843137,55.509803921568626,-1.52,-0.01,-2.65
70.3,-259.0,79.49019607843137,24.50980392156863,1.94,2.29,-2.41
70.35,-259.0,95.49019607843137,39.509803921568626,-3.09,5.62,-0.9
70.4,-290.0,95.49019607843137,39.509803921568626,-2.78,5.44,0.35
70.45,-306.0,95.49019607843137,55.509803921568626,-3.37,3.31,-0.41
70.5,-275.0,79.49019607843137,86.50980392156863,-0.85,0.54,-0.66
70.55,-259.0,62.490196078431374,86.50980392156863,0.01,0.3,-0.59
70.6,-275.0,95.49019607843137,55.509803921568626,-3.23,2.01,-0.66
70.65,-275.0,95.49019607843137,55.509803921568626,-1.03,2.5,-1.85
70.7,-306.0,95.49019607843137,55.509803921568626,0.29,1.59,-2.72
70.75,-275.0,95.49019607843137,55.509803921568626,2.29,0.26,-0.38
70.8,-275.0,111.49019607843137,70.50980392156863,-1.34,0.72,1.5
70.85,-259.0,95.49019607843137,39.509803921568626,-0.08,0.12,3.57
70.9,-259.0,95.49019607843137,55.509803921568626,-0.5,1.24,0.49
70.95,-290.0,62.490196078431374,55.509803921568626,-0.01,3.06,-2.62
71.0,-306.0,46.490196078431374,86.50980392156863,1.83,4.71,-4.72
71.05,-306.0,79.49019607843137,24.50980392156863,-3.16,5.44,-5.84
71.1,-290.0,79.49019607843137,39.509803921568626,2.32,2.26,-1.53
71.15,-227.0,128.49019607843138,70.50980392156863,0.36,0.61,1.92
71.2,-227.0,111.49019607843137,101.50980392156863,-0.82,-1.69,4.23
71.25,-275.0,95.49019607843137,55.509803921568626,0.36,-2.6,4.06
71.3,-275.0,62.490196078431374,86.50980392156863,1.41,-1.37,1.36
71.35,-306.0,62.490196078431374,55.509803921568626,-1.73,0.86,-1.18
71.4,-275.0,62.490196078431374,24.50980392156863,2.46,0.33,-0.87
71.45,-275.0,79.49019607843137,39.509803921568626,-0.12,0.96,-0.87
71.5,-259.0,79.49019607843137,55.509803921568626,0.4,0.33,1.05
71.55,-275.0,111.49019607843137,39.509803921568626,-0.85,0.3,1.43
71.6,-259.0,79.49019607843137,70.50980392156863,2.08,-0.74,1.47
71.65,-290.0,95.49019607843137,55.509803921568626,0.19,-0.57,0.66
71.7,-306.0,95.49019607843137,70.50980392156863,0.99,-0.57,0.63
71.75,-275.0,95.49019607843137,55.509803921568626,-0.05,-0.04,0.31
71.8,-275.0,95.49019607843137,24.50980392156863,0.68,-0.04,0.14
71.85,-259.0,79.49019607843137,39.509803921568626,1.76,-0.18,1.01
71.9,-275.0,95.49019607843137,39.509803921568626,3.16,1.66,4.23
71.95,-306.0,95.49019607843137,39.509803921568626,4.21,9.29,9.76
72.0,-306.0,79.49019607843137,-6.490196078431373,-15.27,16.36,8.15
72.05,288.5098039215686,79.49019607843137,9.509803921568627,-15.97,-0.39,0.7
72.1,-179.0,13.490196078431373,101.50980392156863,0.47,-18.0,-9.37
72.15,-116.0,46.490196078431374,147.50980392156862,15.45,-25.73,-13.89
72.2,-147.0,62.490196078431374,147.50980392156862,20.87,-18.14,-8.67
72.25,-259.0,128.49019607843138,70.50980392156863,4.0,-0.78,0.91
72.3,256.5098039215686,144.49019607843138,-52.490196078431374,-14.75,18.29,8.15
72.35,224.50980392156862,111.49019607843137,-83.49019607843137,-16.88,22.28,5.88
72.4,288.5098039215686,46.490196078431374,-21.49019607843137,-8.52,16.05,-0.45
72.45,-275.0,30.49019607843137,86.50980392156863,-1.13,3.31,-5.38
72.5,-275.0,62.490196078431374,147.50980392156862,6.42,-13.06,-6.96
72.55,-211.0,95.49019607843137,193.50980392156862,9.53,-22.69,0.0
72.6,-227.0,144.49019607843138,116.50980392156863,3.79,-21.6,5.42
72.65,-259.0,111.49019607843137,70.50980392156863,0.26,-15.3,8.05
72.7,-290.0,95.49019607843137,9.509803921568627,-0.99,-6.38,5.63
72.75,320.5098039215686,79.49019607843137,24.50980392156863,-2.71,1.56,-0.17
72.8,320.5098039215686,46.490196078431374,39.509803921568626,0.36,5.86,-4.93
72.85,320.5098039215686,62.490196078431374,39.509803921568626,0.05,4.92,-5.84
72.9,320.5098039215686,79.49019607843137,70.50980392156863,-1.17,1.24,-3.67
72.95,320.5098039215686,95.49019607843137,101.50980392156863,0.05,-2.77,-1.15
73.0,-306.0,111.49019607843137,86.50980392156863,1.34,-5.33,1.22
73.05,-290.0,95.49019607843137,86.50980392156863,1.03,-4.77,1.68
73.1,-306.0,79.49019607843137,39.509803921568626,1.62,-3.23,1.26
73.15,-306.0,79.49019607843137,55.509803921568626,0.85,-0.78,0.7
73.2,-306.0,79.49019607843137,24.50980392156863,0.36,1.59,-0.69
73.25,-306.0,46.490196078431374,39.509803921568626,-0.05,2.89,-1.64
73.3,304.5098039215686,62.490196078431374,70.50980392156863,0.15,2.57,-0.73
73.35,-306.0,95.49019607843137,86.50980392156863,0.08,0.23,1.36
73.4,-306.0,79.49019607843137,70.50980392156863,0.75,-1.55,2.27
73.45,-306.0,79.49019607843137,86.50980392156863,0.57,-3.47,2.52
73.5,-306.0,62.490196078431374,86.50980392156863,1.2,-4.7,2.03
73.55,-306.0,79.49019607843137,86.50980392156863,1.1,-2.91,0.91
73.6,320.5098039215686,79.49019607843137,70.50980392156863,0.05,-0.53,-0.69
73.65,-306.0,79.49019607843137,55.509803921568626,0.5,0.02,-0.73
73.7,-290.0,62.490196078431374,70.50980392156863,2.57,0.47,-0.52
73.75,320.5098039215686,79.49019607843137,55.509803921568626,1.48,2.19,-0.17
73.8,320.5098039215686,79.49019607843137,39.509803921568626,-1.41,3.31,0.14
73.85,320.5098039215686,62.490196078431374,55.509803921568626,0.71,1.91,0.45
73.9,-306.0,62.490196078431374,55.509803921568626,0.68,1.03,0.28
73.95,-306.0,62.490196078431374,70.50980392156863,-0.33,0.68,0.21
74.0,304.5098039215686,62.490196078431374,70.50980392156863,-1.06,0.51,-0.17
74.05,320.5098039215686,46.490196078431374,55.509803921568626,-0.47,-1.37,-1.01
74.1,-306.0,62.490196078431374,70.50980392156863,4.56,-3.12,0.52
74.15,320.5098039215686,79.49019607843137,55.509803921568626,0.85,-0.6,0.35
74.2,320.5098039215686,95.49019607843137,55.509803921568626,-0.82,1.63,1.19
74.25,320.5098039215686,79.49019607843137,24.50980392156863,-0.99,4.64,0.66
74.3,304.5098039215686,79.49019607843137,39.509803921568626,-0.26,5.69,0.21
74.35,320.5098039215686,79.49019607843137,70.50980392156863,-2.39,5.65,-0.62
74.4,320.5098039215686,62.490196078431374,70.50980392156863,-2.95,2.75,-1.22
74.45,320.5098039215686,62.490196078431374,70.50980392156863,0.43,-2.0,-0.55
74.5,-290.0,62.490196078431374,86.50980392156863,-0.4,-3.3,2.27
74.55,-306.0,111.49019607843137,70.50980392156863,-2.01,-1.48,2.87
74.6,-306.0,111.49019607843137,39.509803921568626,0.29,0.3,2.34
74.65,-306.0,62.490196078431374,70.50980392156863,-1.38,1.49,2.8
74.7,320.5098039215686,62.490196078431374,55.509803921568626,-8.73,2.99,1.22
74.75,304.5098039215686,62.490196078431374,39.509803921568626,-4.32,-0.29,0.0
74.8,-306.0,95.49019607843137,86.50980392156863,1.2,-3.02,0.63
74.85,-290.0,111.49019607843137,101.50980392156863,1.62,-2.88,1.26
74.9,-306.0,95.49019607843137,86.50980392156863,-1.41,0.26,0.52
74.95,320.5098039215686,79.49019607843137,70.50980392156863,2.01,1.1,-0.48
75.0,-306.0,79.49019607843137,39.509803921568626,4.42,-0.88,-1.78
75.05,-306.0,79.49019607843137,86.50980392156863,4.77,-1.34,-0.48
75.1,320.5098039215686,79.49019607843137,70.50980392156863,-0.05,0.86,2.24
75.15,288.5098039215686,95.49019607843137,39.509803921568626,-2.5,2.78,2.55
75.2,320.5098039215686,79.49019607843137,70.50980392156863,-1.69,2.01,0.98
75.25,320.5098039215686,79.49019607843137,70.50980392156863,2.04,-0.04,-1.46
75.3,320.5098039215686,62.490196078431374,101.50980392156863,1.97,0.51,-0.2
75.35,320.5098039215686,95.49019607843137,70.50980392156863,-2.08,2.92,1.78
75.4,-306.0,79.49019607843137,70.50980392156863,-1.2,3.52,2.45
75.45,-306.0,95.49019607843137,70.50980392156863,-1.9,2.75,0.56
75.5,320.5098039215686,79.49019607843137,70.50980392156863,0.89,0.68,-0.94
75.55,-306.0,79.49019607843137,70.50980392156863,1.34,0.12,-0.62
75.6,-306.0,95.49019607843137,70.50980392156863,-0.43,-0.22,0.31
75.65,-306.0,95.49019607843137,70.50980392156863,2.57,-1.2,1.15
75.7,-290.0,79.49019607843137,86.50980392156863,2.18,0.33,0.07
75.75,-306.0,62.490196078431374,70.50980392156863,0.05,1.91,0.1
75.8,-306.0,79.49019607843137,55.509803921568626,-0.47,2.68,-0.45
75.85,-290.0,79.49019607843137,55.509803921568626,2.04,1.84,-0.62
75.9,-306.0,79.49019607843137,101.50980392156863,0.43,0.33,0.84
75.95,-306.0,95.49019607843137,55.509803921568626,-0.08,-1.83,1.89
76.0,-306.0,95.49019607843137,86.50980392156863,2.15,-3.12,1.43
76.05,-306.0,79.49019607843137,55.509803921568626,0.68,-1.51,0.38
76.1,-290.0,79.49019607843137,55.509803921568626,-0.61,0.51,0.56
76.15,-306.0,79.49019607843137,24.50980392156863,0.96,1.56,0.7
76.2,-306.0,79.49019607843137,70.50980392156863,-1.31,0.33,-0.06
76.25,-306.0,62.490196078431374,86.50980392156863,2.29,-1.76,-0.9
76.3,-306.0,79.49019607843137,55.509803921568626,3.55,-2.49,-0.27
76.35,320.5098039215686,111.49019607843137,39.509803921568626,2.08,-0.04,1.4
76.4,-306.0,79.49019607843137,39.509803921568626,-0.36,3.34,1.43
76.45,320.5098039215686,62.490196078431374,39.509803921568626,-0.47,4.11,-0.94
76.5,320.5098039215686,62.490196078431374,55.509803921568626,2.04,1.31,-0.31
76.55,-306.0,79.49019607843137,86.50980392156863,-0.01,0.3,0.07
76.6,320.5098039215686,95.49019607843137,55.509803921568626,-0.33,-1.23,0.8
76.65,-306.0,79.49019607843137,70.50980392156863,0.85,-1.97,1.15
76.7,-306.0,79.49019607843137,70.50980392156863,-0.36,-0.92,1.15
76.75,-306.0,79.49019607843137,55.509803921568626,-0.22,0.23,0.87
76.8,-306.0,79.49019607843137,55.509803921568626,-1.1,1.24,0.38
76.85,-275.0,79.49019607843137,55.509803921568626,-0.05,0.68,0.7
76.9,-306.0,95.49019607843137,55.509803921568626,0.57,0.79,1.15
76.95,-306.0,95.49019607843137,55.509803921568626,-0.29,0.89,0.91
77.0,-306.0,62.490196078431374,70.50980392156863,-0.99,0.93,0.63
77.05,320.5098039215686,62.490196078431374,39.509803921568626,-0.82,0.37,0.8
77.1,-306.0,95.49019607843137,55.509803921568626,-1.2,0.12,1.12
77.15,-306.0,95.49019607843137,55.509803921568626,-1.45,0.05,0.84
77.2,-306.0,62.490196078431374,55.509803921568626,0.4,-0.15,1.43
77.25,-306.0,95.49019607843137,70.50980392156863,-0.75,0.65,1.29
77.3,-306.0,79.49019607843137,55.509803921568626,1.34,1.35,1.36
77.35,-306.0,79.49019607843137,55.509803921568626,-1.13,2.89,-0.48
77.4,-306.0,62.490196078431374,70.50980392156863,-0.29,1.59,-1.46
77.45,-290.0,62.490196078431374,86.50980392156863,1.31,-1.79,-0.06
77.5,-290.0,95.49019607843137,70.50980392156863,3.55,-4.73,1.08
77.55,-290.0,95.49019607843137,86.50980392156863,3.58,-4.66,1.96
77.6,320.5098039215686,95.49019607843137,70.50980392156863,2.78,-0.78,2.9
77.65,288.5098039215686,79.49019607843137,9.509803921568627,0.78,4.01,1.92
77.7,320.5098039215686,62.490196078431374,24.50980392156863,-3.69,5.97,-0.38
77.75,-306.0,62.490196078431374,55.509803921568626,0.36,2.78,0.1
77.8,-290.0,95.49019607843137,24.50980392156863,0.75,3.83,0.28
77.85,-306.0,79.49019607843137,70.50980392156863,-1.83,2.08,1.4
77.9,-306.0,111.49019607843137,86.50980392156863,-3.48,-3.26,2.59
77.95,-290.0,79.49019607843137,70.50980392156863,1.83,-5.68,1.61
78.0,-290.0,95.49019607843137,70.50980392156863,3.79,-3.37,1.12
78.05,-259.0,79.49019607843137,24.50980392156863,7.75,5.09,4.86
78.1,320.5098039215686,79.49019607843137,9.509803921568627,-4.77,18.32,6.23
78.15,256.5098039215686,111.49019607843137,-67.49019607843137,-13.35,16.54,5.67
78.2,-306.0,62.490196078431374,86.50980392156863,-11.84,-4.87,-3.18
78.25,-211.0,13.490196078431373,178.50980392156862,7.08,-19.85,-10.84
78.3,-147.0,46.490196078431374,163.50980392156862,21.08,-21.81,-9.83
78.35,-211.0,144.49019607843138,86.50980392156863,10.93,-11.07,0.87
78.4,304.5098039215686,144.49019607843138,9.509803921568627,-10.2,0.51,13.05
78.45,256.5098039215686,128.49019607843138,-36.490196078431374,-10.79,5.44,7.87
78.5,304.5098039215686,30.49019607843137,9.509803921568627,-0.15,5.83,-3.91
78.55,320.5098039215686,13.490196078431373,39.509803921568626,9.25,2.92,-11.79
78.6,-243.0,30.49019607843137,86.50980392156863,8.83,-1.2,-10.67
78.65,-275.0,95.49019607843137,101.50980392156863,-1.34,-2.39,-1.57
78.7,320.5098039215686,128.49019607843138,101.50980392156863,-4.07,-3.72,6.82
78.75,320.5098039215686,128.49019607843138,70.50980392156863,-4.56,-4.07,7.56
78.8,320.5098039215686,95.49019607843137,70.50980392156863,-2.6,-3.23,3.71
78.85,320.5098039215686,62.490196078431374,70.50980392156863,0.75,-1.09,-0.69
78.9,320.5098039215686,46.490196078431374,39.509803921568626,0.78,3.24,-2.72
78.95,-306.0,79.49019607843137,39.509803921568626,-0.26,4.99,-0.8
79.0,-306.0,79.49019607843137,55.509803921568626,-0.57,4.99,0.45
79.05,-306.0,79.49019607843137,55.509803921568626,-1.13,3.06,0.14
79.1,-290.0,62.490196078431374,39.509803921568626,1.97,0.86,0.35
79.15,-306.0,79.49019607843137,55.509803921568626,1.41,0.44,-0.48
79.2,320.5098039215686,95.49019607843137,70.50980392156863,-1.27,1.14,-0.31
79.25,-306.0,62.490196078431374,55.509803921568626,2.81,0.82,1.71
79.3,-275.0,79.49019607843137,39.509803921568626,-1.62,1.14,1.15
79.35,-290.0,79.49019607843137,70.50980392156863,-0.22,-0.88,0.87
79.4,-306.0,79.49019607843137,39.509803921568626,4.18,-2.04,0.42
79.45,-306.0,79.49019607843137,70.50980392156863,0.57,-0.36,0.21
79.5,-306.0,79.49019607843137,55.509803921568626,-0.05,1.24,0.1
79.55,320.5098039215686,62.490196078431374,39.509803921568626,1.52,2.26,-0.38
79.6,-306.0,79.49019607843137,86.50980392156863,0.01,2.82,-1.74
79.65,-306.0,46.490196078431374,55.509803921568626,0.92,1.38,-0.45
79.7,-306.0,79.49019607843137,55.509803921568626,0.47,0.05,1.01
79.75,320.5098039215686,79.49019607843137,70.50980392156863,0.5,-0.67,1.82
79.8,-306.0,111.49019607843137,55.509803921568626,0.96,-0.25,1.64
79.85,-306.0,79.49019607843137,55.509803921568626,-0.47,0.72,0.14
79.9,-306.0,62.490196078431374,55.509803921568626,0.71,0.86,-0.83
79.95,-290.0,79.49019607843137,55.509803921568626,0.85,1.56,0.28
80.0,-290.0,62.490196078431374,39.509803921568626,-0.92,2.75,1.4
80.05,-306.0,79.49019607843137,70.50980392156863,-1.83,1.73,0.7
80.1,-306.0,62.490196078431374,39.509803921568626,0.85,-1.23,0.91
80.15,-306.0,79.49019607843137,86.50980392156863,-0.19,-2.6,0.94
80.2,-306.0,79.49019607843137,39.509803921568626,-0.19,-2.32,1.5
80.25,-306.0,95.49019607843137,55.509803921568626,-1.62,-1.3,0.94
80.3,-306.0,62.490196078431374,39.509803921568626,-0.43,-0.32,0.63
80.35,-290.0,62.490196078431374,24.50980392156863,0.19,1.35,0.87
80.4,-290.0,62.490196078431374,24.50980392156863,-1.38,2.57,1.26
80.45,320.5098039215686,79.49019607843137,39.509803921568626,0.22,2.33,1.43
80.5,-306.0,95.49019607843137,55.509803921568626,-0.54,1.56,1.05
80.55,320.5098039215686,46.490196078431374,70.50980392156863,-0.05,0.54,0.98
80.6,-306.0,79.49019607843137,55.509803921568626,0.12,0.68,0.91
80.65,-275.0,95.49019607843137,39.509803921568626,-0.64,1.91,1.5
80.7,-290.0,79.49019607843137,24.50980392156863,-0.75,2.15,1.29
80.75,-290.0,79.49019607843137,55.509803921568626,-0.05,2.33,0.66
80.8,-290.0,79.49019607843137,39.509803921568626,-0.01,3.24,0.03
80.85,-275.0,79.49019607843137,39.509803921568626,-0.36,3.34,-0.76
80.9,-306.0,62.490196078431374,55.509803921568626,-0.19,1.31,-0.83
80.95,-290.0,79.49019607843137,70.50980392156863,0.47,-1.58,0.21
81.0,-275.0,95.49019607843137,70.50980392156863,1.2,-2.88,1.96
81.05,-290.0,95.49019607843137,55.509803921568626,-0.89,-2.18,0.77
81.1,-275.0,62.490196078431374,55.509803921568626,1.45,-3.05,0.42
81.15,-259.0,95.49019607843137,39.509803921568626,2.11,-1.55,0.7
81.2,-275.0,79.49019607843137,55.509803921568626,0.29,0.82,-0.13
81.25,-306.0,62.490196078431374,55.509803921568626,0.05,0.61,-0.8
81.3,-306.0,95.49019607843137,55.509803921568626,2.25,-0.32,-0.52
81.35,-306.0,79.49019607843137,55.509803921568626,0.15,0.86,0.31
81.4,320.5098039215686,79.49019607843137,86.50980392156863,-0.15,0.93,0.77
81.45,-306.0,62.490196078431374,39.509803921568626,0.26,-0.15,0.35
81.5,320.5098039215686,79.49019607843137,55.509803921568626,0.99,-0.81,-0.03
81.55,-306.0,95.49019607843137,55.509803921568626,0.71,-0.57,0.66
81.6,320.5098039215686,62.490196078431374,55.509803921568626,-0.43,1.21,0.94
81.65,-290.0,62.490196078431374,39.509803921568626,-1.17,1.63,0.56
81.7,-290.0,46.490196078431374,39.509803921568626,0.75,0.65,0.35
81.75,-306.0,79.49019607843137,39.509803921568626,-0.54,0.72,0.07
81.8,-306.0,79.49019607843137,55.509803921568626,-0.12,0.44,0.91
81.85,-290.0,79.49019607843137,55.509803921568626,-0.92,1.35,0.98
81.9,320.5098039215686,79.49019607843137,39.509803921568626,-0.92,1.45,0.8
81.95,-290.0,62.490196078431374,55.509803921568626,-0.29,0.65,0.63
82.0,-306.0,62.490196078431374,55.509803921568626,-0.01,0.33,0.52
82.05,-306.0,79.49019607843137,55.509803921568626,-1.2,0.3,0.56
82.1,-306.0,62.490196078431374,39.509803921568626,-1.06,0.16,0.7
82.15,-306.0,79.49019607843137,55.509803921568626,0.15,-0.22,1.36
82.2,-275.0,62.490196078431374,55.509803921568626,-0.75,-0.15,1.5
82.25,-290.0,62.490196078431374,55.509803921568626,-0.43,0.23,0.87
82.3,-290.0,62.490196078431374,39.509803921568626,-1.06,0.19,0.07
82.35,-275.0,79.49019607843137,70.50980392156863,-1.1,-2.21,0.38
82.4,-290.0,79.49019607843137,55.509803921568626,2.11,-5.15,1.01
82.45,-290.0,95.49019607843137,86.50980392156863,4.18,-7.32,0.17
82.5,-290.0,79.49019607843137,86.50980392156863,6.84,-7.64,1.12
82.55,-290.0,62.490196078431374,24.50980392156863,13.31,1.56,1.15
82.6,304.5098039215686,95.49019607843137,9.509803921568627,20.63,8.1,6.09
82.65,320.5098039215686,62.490196078431374,-6.490196078431373,29.34,11.64,5.32
82.7,320.5098039215686,111.49019607843137,-6.490196078431373,84.5,3.76,6.72
82.75,-306.0,128.49019607843138,-21.49019607843137,64.38,-2.14,1.64
82.8,-259.0,-51.509803921568626,-6.490196078431373,41.56,-1.97,2.27
82.85,-290.0,-100.50980392156863,-83.49019607843137,20.52,-1.34,3.04
82.9,-259.0,-67.50980392156863,-52.490196078431374,7.68,1.63,1.15
82.95,-306.0,-100.50980392156863,-98.49019607843137,-2.46,2.78,-0.38
83.0,-290.0,-100.50980392156863,-129.49019607843138,-1.48,3.34,-1.5
83.05,-290.0,-100.50980392156863,-129.49019607843138,-5.75,0.58,-1.53
83.1,-275.0,-67.50980392156863,-113.49019607843137,-12.26,-1.44,-1.74
83.15,-275.0,-116.50980392156863,-113.49019607843137,-0.99,-6.87,0.91
83.2,-259.0,-2.5098039215686274,-98.49019607843137,-22.17,-5.19,-0.9
83.25,-290.0,-116.50980392156863,-98.49019607843137,0.22,-6.2,0.49
83.3,-290.0,30.49019607843137,-98.49019607843137,-5.61,-1.62,-1.18
83.35,-275.0,-84.50980392156863,-113.49019607843137,-49.89,0.05,-2.97
83.4,-306.0,-84.50980392156863,-98.49019607843137,-66.44,3.24,0.24
83.45,-290.0,-100.50980392156863,-67.49019607843137,-23.25,-1.09,3.6
83.5,-275.0,128.49019607843138,-21.49019607843137,4.49,-4.59,3.6
83.55,-306.0,62.490196078431374,-21.49019607843137,17.79,-5.05,0.35
83.6,-290.0,13.490196078431373,-36.490196078431374,22.94,-3.51,-1.57
83.65,-306.0,-2.5098039215686274,-52.490196078431374,12.93,-0.46,-2.58
83.7,-306.0,-18.50980392156863,-36.490196078431374,19.75,-0.46,-0.27
83.75,-306.0,30.49019607843137,-67.49019607843137,48.49,-0.5,2.66
83.8,320.5098039215686,62.490196078431374,-67.49019607843137,33.33,1.0,0.59
83.85,-306.0,-67.50980392156863,-67.49019607843137,16.53,2.68,0.66
83.9,-306.0,-100.50980392156863,-83.49019607843137,12.37,0.16,1.68
83.95,-275.0,-67.50980392156863,-98.49019607843137,8.55,-1.93,1.12
84.0,-290.0,-100.50980392156863,-129.49019607843138,1.24,-2.49,1.15
84.05,-306.0,-84.50980392156863,-98.49019607843137,-9.43,0.12,1.05
84.1,-275.0,-149.50980392156862,-129.49019607843138,6.28,-2.32,1.96
84.15,-306.0,-51.509803921568626,-113.49019607843137,-4.18,0.33,-0.48
84.2,-275.0,-149.50980392156862,-144.49019607843138,0.75,-0.99,0.42
84.25,-290.0,-67.50980392156863,-129.49019607843138,-7.22,1.59,-1.36
84.3,320.5098039215686,-133.50980392156862,-144.49019607843138,4.67,-1.13,0.56
84.35,-306.0,-67.50980392156863,-129.49019607843138,3.06,0.12,0.49
84.4,-306.0,-100.50980392156863,-144.49019607843138,-0.08,1.66,0.35
84.45,-306.0,-116.50980392156863,-144.49019607843138,1.55,2.29,0.94
84.5,-306.0,-84.50980392156863,-98.49019607843137,3.06,2.29,0.91
84.55,-306.0,-67.50980392156863,-144.49019607843138,-0.64,2.57,0.56
84.6,-290.0,-100.50980392156863,-113.49019607843137,-0.08,1.98,1.33
84.65,-306.0,-84.50980392156863,-129.49019607843138,0.33,2.33,0.94
84.7,320.5098039215686,-84.50980392156863,-113.49019607843137,1.2,1.56,0.94
84.75,-306.0,-100.50980392156863,-113.49019607843137,-3.65,1.59,-0.06
84.8,320.5098039215686,-84.50980392156863,-144.49019607843138,-0.19,1.07,0.28
84.85,-306.0,-84.50980392156863,-144.49019607843138,2.46,1.0,0.35
84.9,-290.0,-100.50980392156863,-160.49019607843138,-0.4,1.8,1.05
84.95,-290.0,-84.50980392156863,-129.49019607843138,-0.64,2.05,1.47
85.0,-290.0,-100.50980392156863,-129.49019607843138,1.17,0.58,0.84
85.05,-290.0,-100.50980392156863,-129.49019607843138,-0.29,-0.32,-0.17
85.1,-306.0,-100.50980392156863,-113.49019607843137,0.89,-1.37,0.24
85.15,-290.0,-67.50980392156863,-129.49019607843138,-1.13,-1.44,0.03
85.2,-290.0,-84.50980392156863,-129.49019607843138,2.01,-1.65,2.06
85.25,-275.0,-100.50980392156863,-144.49019607843138,-0.61,-0.57,1.96
85.3,-306.0,-84.50980392156863,-113.49019607843137,0.57,-0.11,0.7
85.35,-290.0,-100.50980392156863,-144.49019607843138,1.17,-0.92,0.66
85.4,-290.0,-84.50980392156863,-129.49019607843138,-1.69,-0.46,0.38
85.45,-306.0,-116.50980392156863,-144.49019607843138,0.15,-1.86,0.56
85.5,-290.0,-84.50980392156863,-129.49019607843138,-1.13,-0.64,0.91
85.55,-290.0,-100.50980392156863,-129.49019607843138,0.89,0.16,1.22
85.6,-290.0,-67.50980392156863,-144.49019607843138,-0.33,-0.15,0.21
85.65,-306.0,-100.50980392156863,-129.49019607843138,-0.19,-0.81,0.84
85.7,-275.0,-84.50980392156863,-129.49019607843138,-0.15,-1.02,0.66
85.75,-306.0,-67.50980392156863,-144.49019607843138,1.06,-0.29,0.0
85.8,-290.0,-67.50980392156863,-144.49019607843138,-0.08,1.66,-0.41
85.85,-290.0,-116.50980392156863,-129.49019607843138,1.45,1.87,-1.18
85.9,-306.0,-100.50980392156863,-160.49019607843138,3.3,1.21,-0.87
85.95,-290.0,-84.50980392156863,-129.49019607843138,3.16,1.07,0.45
86.0,-306.0,-84.50980392156863,-129.49019607843138,-0.12,0.93,0.91
86.05,320.5098039215686,-116.50980392156863,-113.49019607843137,1.62,0.33,0.91
86.1,-275.0,-100.50980392156863,-129.49019607843138,0.12,0.86,0.28
86.15,320.5098039215686,-100.50980392156863,-144.49019607843138,-0.89,2.29,0.63
86.2,-306.0,-100.50980392156863,-144.49019607843138,0.54,2.19,0.24
86.25,-290.0,-100.50980392156863,-144.49019607843138,-2.29,2.64,0.42
86.3,-290.0,-116.50980392156863,-129.49019607843138,0.57,1.31,1.36
86.35,-290.0,-100.50980392156863,-113.49019607843137,-2.39,0.86,1.19
86.4,-306.0,-116.50980392156863,-129.49019607843138,-2.11,0.12,1.99
86.45,-290.0,-100.50980392156863,-129.49019607843138,-0.92,-0.67,1.75
86.5,-290.0,-84.50980392156863,-98.49019607843137,-3.13,-0.85,0.63
86.55,-290.0,-100.50980392156863,-129.49019607843138,-0.01,-0.74,0.66
86.6,-259.0,-84.50980392156863,-129.49019607843138,0.12,-0.29,0.94
86.65,-290.0,-100.50980392156863,-144.49019607843138,-1.17,0.37,1.19
86.7,-290.0,-100.50980392156863,-129.49019607843138,-0.68,0.02,0.77
86.75,-275.0,-100.50980392156863,-113.49019607843137,-0.71,-0.88,0.21
86.8,-306.0,-84.50980392156863,-113.49019607843137,-1.8,-1.16,0.38
86.85,-290.0,-100.50980392156863,-113.49019607843137,1.2,-1.93,1.43
86.9,-275.0,-84.50980392156863,-129.49019607843138,-2.25,-1.9,1.12
86.95,-290.0,-84.50980392156863,-98.49019607843137,-0.82,-1.27,1.68
87.0,-290.0,-84.50980392156863,-113.49019607843137,-1.94,0.51,0.31
87.05,-306.0,-84.50980392156863,-144.49019607843138,1.9,0.61,0.21
87.1,-290.0,-84.50980392156863,-113.49019607843137,-1.17,1.17,0.49
87.15,-275.0,-100.50980392156863,-129.49019607843138,0.96,0.79,0.63
87.2,-290.0,-67.50980392156863,-113.49019607843137,-0.96,0.79,0.52
87.25,-290.0,-84.50980392156863,-129.49019607843138,0.19,1.1,0.7
87.3,-290.0,-100.50980392156863,-144.49019607843138,0.29,0.96,0.21
87.35,-306.0,-100.50980392156863,-129.49019607843138,-1.34,1.0,0.24
87.4,-275.0,-100.50980392156863,-113.49019607843137,1.1,0.68,0.52
87.45,-306.0,-67.50980392156863,-129.49019607843138,0.26,1.21,0.24
87.5,-290.0,-100.50980392156863,-129.49019607843138,-1.66,1.28,-0.03
87.55,-290.0,-100.50980392156863,-113.49019607843137,1.38,-0.29,0.38
87.6,-290.0,-84.50980392156863,-98.49019607843137,-0.43,-1.51,0.17
87.65,-306.0,-84.50980392156863,-129.49019607843138,1.48,-1.51,2.1
87.7,-275.0,-84.50980392156863,-129.49019607843138,1.66,-0.04,1.36
87.75,-306.0,-67.50980392156863,-144.49019607843138,1.45,0.96,0.87
87.8,-259.0,-100.50980392156863,-144.49019607843138,1.45,0.68,0.56
87.85,-306.0,-84.50980392156863,-129.49019607843138,-0.36,0.23,0.03
87.9,-306.0,-100.50980392156863,-129.49019607843138,1.06,-1.72,0.7
87.95,-290.0,-84.50980392156863,-113.49019607843137,-4.84,-1.79,1.26
88.0,-259.0,-100.50980392156863,-113.49019607843137,-0.68,-0.22,1.68
88.05,-306.0,-67.50980392156863,-129.49019607843138,5.12,0.37,0.98
88.1,-290.0,-84.50980392156863,-129.49019607843138,-2.99,2.36,-1.29
88.15,-290.0,-133.50980392156862,-113.49019607843137,3.79,1.14,-1.01
88.2,-306.0,-51.509803921568626,-98.49019607843137,-0.36,1.24,-0.06
88.25,-275.0,-84.50980392156863,-113.49019607843137,0.22,-0.22,0.94
88.3,-290.0,-84.50980392156863,-129.49019607843138,-0.01,-0.39,0.73
88.35,-290.0,-84.50980392156863,-144.49019607843138,0.29,0.47,1.08
88.4,-306.0,-67.50980392156863,-144.49019607843138,0.96,0.86,0.35
88.45,-306.0,-67.50980392156863,-98.49019607843137,1.03,0.4,-0.62
88.5,-306.0,-100.50980392156863,-113.49019607843137,1.8,0.44,0.0
88.55,-290.0,-84.50980392156863,-129.49019607843138,-1.38,0.86,0.28
88.6,-290.0,-84.50980392156863,-129.49019607843138,2.32,-0.5,1.33
88.65,-290.0,-51.509803921568626,-113.49019607843137,-2.32,0.05,0.38
88.7,-290.0,-116.50980392156863,-113.49019607843137,1.97,-0.39,0.31
88.75,-290.0,-84.50980392156863,-144.49019607843138,-3.58,0.82,0.14
88.8,-275.0,-100.50980392156863,-129.49019607843138,1.66,-0.32,0.73
88.85,-290.0,-84.50980392156863,-113.49019607843137,0.01,-0.5,0.03
88.9,-290.0,-100.50980392156863,-129.49019607843138,-1.1,-0.71,1.01
88.95,-290.0,-100.50980392156863,-129.49019607843138,-0.01,-0.43,0.8
89.0,-275.0,-67.50980392156863,-144.49019607843138,-0.92,0.72,-0.27
89.05,-306.0,-100.50980392156863,-129.49019607843138,-2.01,2.01,-0.9
89.1,-306.0,-100.50980392156863,-113.49019607843137,-0.26,1.94,-0.97
89.15,-290.0,-84.50980392156863,-113.49019607843137,-0.5,1.35,0.28
89.2,-306.0,-84.50980392156863,-129.49019607843138,-1.45,-0.22,1.5
89.25,-275.0,-67.50980392156863,-98.49019607843137,1.38,-1.93,2.27
89.3,-275.0,-67.50980392156863,-113.49019607843137,-0.29,-1.79,1.68
89.35,-275.0,-84.50980392156863,-144.49019607843138,0.82,-0.88,0.77
89.4,-306.0,-84.50980392156863,-113.49019607843137,-1.17,1.0,-0.52
89.45,-306.0,-84.50980392156863,-144.49019607843138,1.1,0.16,0.38
89.5,-275.0,-100.50980392156863,-129.49019607843138,-2.08,0.61,0.73
89.55,-290.0,-84.50980392156863,-129.49019607843138,1.48,-0.36,2.13
89.6,-275.0,-84.50980392156863,-113.49019607843137,-0.57,0.02,1.96
89.65,-290.0,-84.50980392156863,-98.49019607843137,-0.82,0.4,1.29
89.7,-290.0,-84.50980392156863,-113.49019607843137,-0.64,0.26,0.59
89.75,-275.0,-100.50980392156863,-113.49019607843137,0.99,0.68,0.8
89.8,-290.0,-84.50980392156863,-129.49019607843138,2.5,0.79,1.33
89.85,-290.0,-67.50980392156863,-144.49019607843138,-0.43,1.31,0.8
89.9,-306.0,-67.50980392156863,-129.49019607843138,1.83,1.21,0.14
89.95,-275.0,-100.50980392156863,-129.49019607843138,-0.61,1.63,-1.18
90.0,-290.0,-84.50980392156863,-129.49019607843138,1.62,1.52,-0.52
90.05,-243.0,-67.50980392156863,-113.49019607843137,0.33,1.77,-0.83
90.1,-290.0,-67.50980392156863,-144.49019607843138,2.74,0.47,0.07
