rel_time,acc_x,acc_y,acc_z,gyro_x,gyro_y,gyro_z
3469.0,272.5098039215686,-78.0,-267.4901960784314,21.86,28.17,-29.69
3469.05,-211.0,-192.0,-83.49019607843137,70.9,-17.32,-0.04
3469.1,106.0,221.50980392156862,252.01960784313727,-25.52,14.66,6.11
3469.15,81.50980392156863,286.5098039215686,-252.49019607843138,-23.56,24.01,-0.6
3469.2,208.50980392156862,-307.0,-313.4901960784314,-15.89,21.07,19.41
3469.25,288.5098039215686,-29.0,298.01960784313724,-6.37,20.79,9.92
3469.3,320.5098039215686,-78.0,282.01960784313724,12.55,0.7,6.77
3469.35,-211.0,-127.0,-236.49019607843138,33.69,-2.65,14.16
3469.4,272.5098039215686,-45.0,-313.4901960784314,42.9,-5.17,8.98
3469.45,304.5098039215686,-274.0,-267.4901960784314,19.13,6.44,12.86
3469.5,193.50980392156862,-274.0,-313.4901960784314,-3.78,12.21,10.38
3469.55,256.5098039215686,-258.0,252.01960784313727,8.81,12.46,5.69
3469.6,304.5098039215686,-160.0,282.01960784313724,8.0,11.3,4.46
3469.65,288.5098039215686,-241.0,313.01960784313724,-5.92,15.96,3.66
3469.7,304.5098039215686,237.50980392156862,-283.4901960784314,-14.84,13.79,5.23
3469.75,320.5098039215686,-274.0,-313.4901960784314,-1.02,11.44,2.75
3469.8,-259.0,-274.0,-283.4901960784314,7.93,4.9,-5.22
3469.85,-306.0,-258.0,-283.4901960784314,-3.22,8.43,2.05
3469.9,-259.0,286.5098039215686,-237.49019607843138,-8.26,6.58,2.57
3469.95,-275.0,-307.0,-313.4901960784314,22.42,-10.35,-19.57
3470.0,18.50980392156863,303.5098039215686,-221.49019607843138,32.19,-10.11,-39.45
3470.05,-290.0,-307.0,252.01960784313727,9.3,8.82,-3.68
3470.1,-227.0,303.5098039215686,313.01960784313724,9.12,4.41,1.7
3470.15,320.5098039215686,286.5098039215686,-267.4901960784314,5.38,0.49,-5.85
3470.2,-163.0,188.50980392156862,-283.4901960784314,-5.67,10.53,11.81
3470.25,-195.0,-290.0,282.01960784313724,-4.27,13.23,0.09
3470.3,-179.0,254.50980392156862,-298.4901960784314,5.38,2.17,5.69
3470.35,-211.0,-274.0,-298.4901960784314,-3.54,0.38,9.12
3470.4,-306.0,-274.0,313.01960784313724,-7.25,7.07,-0.15
3470.45,-259.0,319.5098039215686,-298.4901960784314,-5.53,-0.06,5.93
3470.5,-163.0,-290.0,-298.4901960784314,15.14,-6.12,-14.36
3470.55,-275.0,-258.0,-313.4901960784314,1.56,5.11,-10.72
3470.6,320.5098039215686,-274.0,313.01960784313724,3.07,4.86,9.96
3470.65,-211.0,286.5098039215686,-298.4901960784314,7.02,12.46,-6.38
3470.7,-195.0,-290.0,282.01960784313724,-19.46,-2.72,7.61
3470.75,-227.0,-274.0,313.01960784313724,-8.65,4.76,14.26
3470.8,304.5098039215686,-258.0,-283.4901960784314,8.81,-1.11,2.82
3470.85,-243.0,270.5098039215686,-313.4901960784314,5.34,-3.6,12.93
3470.9,99.49019607843137,80.01960784313725,82.01960784313725,5.97,1.08,-3.44
3470.95,320.5098039215686,150.0,-129.49019607843138,-18.45,7.56,3.59
3471.0,97.50980392156863,-45.0,-83.49019607843137,7.23,8.5,-10.47
3471.05,226.49019607843138,31.019607843137255,-233.0,-11.1,7.35,-6.76
3471.1,-227.0,-307.0,-203.0,-23.14,9.13,-14.43
3471.15,-299.4901960784314,264.0,-160.49019607843138,-39.48,0.56,-7.88
3471.2,313.0,-301.4901960784314,-313.4901960784314,-15.37,1.4,-7.67
3471.25,249.0,303.5098039215686,175.01960784313727,6.29,11.23,-1.27
3471.3,-188.49019607843138,13.490196078431373,298.01960784313724,10.8,-20.33,-22.65
3471.35,106.0,-219.49019607843138,-221.49019607843138,-65.31,-28.03,-41.66
3471.4,-202.50980392156862,308.01960784313724,298.01960784313724,-64.02,-34.5,-67.28
3471.45,-283.4901960784314,-247.50980392156862,-144.49019607843138,-67.24,-2.51,-13.34
3471.5,-267.4901960784314,-149.50980392156862,144.01960784313727,-55.86,-44.3,-13.83
3471.55,-43.509803921568626,292.01960784313724,-175.49019607843138,-49.46,8.36,-38.33
3471.6,184.01960784313727,52.0,140.52941176470588,-28.0,11.23,-56.15
3471.65,-188.49019607843138,-165.50980392156862,175.01960784313727,12.09,21.7,-41.2
3471.7,90.0,-187.49019607843138,82.01960784313725,34.88,8.22,-11.49
3471.75,249.0,-241.0,-209.98039215686273,44.96,-0.41,-6.17
3471.8,-236.49019607843138,144.49019607843138,178.50980392156862,97.46,3.99,42.09
3471.85,81.50980392156863,166.0,-144.49019607843138,103.37,-8.57,50.56
3471.9,201.0,9.509803921568627,-175.49019607843138,25.15,2.87,19.58
3471.95,304.5098039215686,-111.0,39.509803921568626,-19.81,11.93,22.31
3472.0,-131.0,123.50980392156863,-313.4901960784314,-10.78,20.65,30.57
3472.05,-68.0,237.50980392156862,190.01960784313727,-10.29,26.74,31.69
3472.1,-68.0,-78.0,221.01960784313727,-6.13,30.62,35.19
3472.15,-259.0,-62.0,190.01960784313727,23.58,18.37,30.96
3472.2,-243.0,-143.0,144.01960784313727,39.47,31.32,22.77
3472.25,-179.0,139.50980392156862,129.01960784313727,30.02,27.44,25.53
3472.3,-179.0,205.50980392156862,-252.49019607843138,-5.11,17.57,23.36
3472.35,-179.0,-274.0,-52.490196078431374,-31.4,47.91,68.27
3472.4,-52.0,-143.0,144.01960784313727,-13.94,30.94,-9.04
3472.45,74.0,183.0,36.01960784313726,3.98,26.11,10.94
3472.5,49.509803921568626,-35.509803921568626,-21.49019607843137,-7.98,24.5,27.81
3472.55,-227.0,-40.490196078431374,-175.49019607843138,46.12,8.19,1.14
3472.6,-234.50980392156862,-72.49019607843137,144.01960784313727,-14.95,5.04,18.29
3472.65,65.50980392156863,-263.5098039215686,-175.49019607843138,21.12,4.9,12.44
3472.7,-163.0,221.50980392156862,-206.49019607843138,20.32,1.57,4.39
3472.75,35.490196078431374,-236.49019607843138,-9.980392156862745,1.56,9.17,-4.42
3472.8,2.5098039215686274,-133.50980392156862,236.01960784313727,18.78,8.89,-17.68
3472.85,-29.49019607843137,-290.0,-283.4901960784314,17.98,3.99,-16.84
3472.9,-59.509803921568626,-138.49019607843138,267.01960784313724,26.13,7.91,4.92
3472.95,272.5098039215686,-296.5098039215686,-313.4901960784314,-3.19,7.52,8.49
3473.0,42.0,259.01960784313724,267.01960784313724,9.09,-0.97,23.71
3473.05,249.0,101.0,-313.4901960784314,-34.06,-0.8,19.9
3473.1,320.5098039215686,25.50980392156863,-252.49019607843138,-3.05,-1.43,5.44
3473.15,83.49019607843137,-40.490196078431374,221.01960784313727,5.69,1.29,2.78
3473.2,-108.49019607843137,-296.5098039215686,-190.49019607843138,3.31,5.0,4.5
3473.25,-234.50980392156862,227.01960784313727,144.01960784313727,2.93,-0.13,1.38
3473.3,74.0,-78.0,282.01960784313724,-2.21,0.1,-1.48
3473.35,-77.49019607843137,19.0,-160.49019607843138,-1.86,2.94,-1.02
3473.4,210.49019607843138,178.01960784313727,159.01960784313727,-0.98,4.51,2.5
3473.45,-211.0,183.0,298.01960784313724,0.69,0.03,1.87
3473.5,-68.0,237.50980392156862,-252.49019607843138,1.63,3.11,2.01
3473.55,58.0,237.50980392156862,298.01960784313724,-0.95,1.92,-0.11
3473.6,27.0,270.5098039215686,282.01960784313724,0.48,1.5,-0.08
3473.65,11.0,303.5098039215686,-313.4901960784314,4.15,0.73,-0.22
3473.7,11.0,303.5098039215686,313.01960784313724,-2.52,1.22,5.34
3473.75,27.0,286.5098039215686,282.01960784313724,-1.23,0.87,2.29
3473.8,-20.0,303.5098039215686,282.01960784313724,2.23,2.41,-1.69
3473.85,11.0,319.5098039215686,-298.4901960784314,-3.71,2.27,2.33
3473.9,-4.0,303.5098039215686,298.01960784313724,1.04,-0.62,5.13
3473.95,27.0,270.5098039215686,-298.4901960784314,-0.63,-1.64,1.66
3474.0,11.0,156.50980392156862,-252.49019607843138,-2.84,0.31,0.3
3474.05,-241.01960784313727,145.01960784313727,21.019607843137255,0.72,0.73,1.91
3474.1,-84.0,101.0,206.01960784313727,-0.25,-0.62,1.07
3474.15,-283.4901960784314,30.49019607843137,-52.490196078431374,-3.75,1.05,0.75
3474.2,161.50980392156862,-225.0,-83.49019607843137,0.48,-0.27,0.37
3474.25,19.49019607843137,63.01960784313726,206.01960784313727,-0.07,1.92,1.94
3474.3,-320.01960784313724,210.01960784313727,52.01960784313726,1.84,-1.01,0.16
3474.35,11.0,3.0,144.01960784313727,-3.05,1.54,1.1
3474.4,-252.49019607843138,79.49019607843137,-144.49019607843138,2.75,1.68,0.16
3474.45,-29.49019607843137,-13.0,-6.490196078431373,8.77,-0.69,-3.16
3474.5,-266.5098039215686,259.01960784313724,-313.4901960784314,-17.47,-5.56,12.86
3474.55,-257.01960784313724,-50.98039215686274,82.01960784313725,12.9,-1.39,-24.3
3474.6,233.0,254.50980392156862,-55.98039215686274,0.65,10.6,-7.92
3474.65,113.50980392156863,-165.50980392156862,282.01960784313724,-24.64,0.38,-5.05
3474.7,-204.49019607843138,-2.5098039215686274,-67.49019607843137,-32.76,1.4,-8.79
3474.75,145.50980392156862,-29.0,-98.49019607843137,-15.12,-4.79,-6.1
3474.8,-186.50980392156862,-252.49019607843138,-298.4901960784314,-20.76,3.39,-8.72
3474.85,-114.01960784313725,47.01960784313726,-40.98039215686274,-12.29,-11.58,-11.59
3474.9,-298.5098039215686,123.50980392156863,144.01960784313727,18.39,-37.16,-46.24
3474.95,49.509803921568626,-133.50980392156862,-252.49019607843138,-44.56,-87.74,-71.51
3475.0,311.01960784313724,-67.50980392156863,-310.0,-79.1,-84.9,-56.53
3475.05,2.5098039215686274,19.0,-175.49019607843138,-34.27,-55.75,-71.3
3475.1,-4.0,-13.0,-40.98039215686274,-93.87,-62.71,-82.4
3475.15,193.50980392156862,183.0,159.01960784313727,2.19,-7.2,-102.77
3475.2,113.50980392156863,-29.0,5.019607843137255,-66.92,54.11,-45.72
3475.25,145.50980392156862,-62.0,-40.98039215686274,-52.96,49.52,-39.59
3475.3,-36.0,35.0,-224.98039215686273,-35.74,35.63,-9.88
3475.35,-52.0,166.0,147.50980392156862,-36.93,-11.54,-18.21
3475.4,-36.0,-274.0,-187.0,-31.82,-28.9,-9.39
3475.45,-275.0,-127.0,116.50980392156863,-45.78,-12.14,-18.63
3475.5,288.5098039215686,-29.0,221.01960784313727,-49.95,7.98,6.74
3475.55,224.50980392156862,-296.5098039215686,-240.98039215686273,-30.45,12.98,9.08
3475.6,-211.0,232.0,52.01960784313726,-18.8,7.35,8.1
3475.65,-195.0,232.0,159.01960784313727,-19.11,8.19,0.82
3475.7,-211.0,166.0,82.01960784313725,-26.29,10.11,7.58
3475.75,-227.0,183.0,101.50980392156863,-22.51,12.74,11.39
3475.8,-259.0,-182.50980392156862,252.01960784313727,-29.12,16.03,15.56
3475.85,-36.0,248.0,-172.0,-39.1,21.21,15.24
3475.9,-195.0,183.0,159.01960784313727,-8.16,22.33,22.77
3475.95,-290.0,-149.50980392156862,67.01960784313725,-10.54,30.83,28.3
3476.0,-195.0,297.0,206.01960784313727,-5.36,35.1,32.18
3476.05,-243.0,313.0,36.01960784313726,-20.41,40.11,43.52
3476.1,-275.0,-165.50980392156862,278.52941176470586,-10.71,47.77,49.58
3476.15,-163.0,-247.50980392156862,-190.49019607843138,-3.64,41.72,60.95
3476.2,90.0,-214.50980392156862,-95.0,-2.7,27.96,56.02
3476.25,-84.0,-214.50980392156862,206.01960784313727,-21.95,26.14,71.1
3476.3,58.0,297.0,67.01960784313725,-48.55,0.8,58.61
3476.35,-234.50980392156862,-296.5098039215686,-224.98039215686273,0.44,-53.12,26.48
3476.4,-266.5098039215686,-67.50980392156863,298.01960784313724,-21.77,-66.91,-24.96
3476.45,83.49019607843137,-78.0,282.01960784313724,-59.86,-59.88,-50.02
3476.5,-9.529411764705882,-170.49019607843138,-279.0,69.39,-12.38,6.6
3476.55,-50.01960784313726,264.0,21.019607843137255,-3.47,25.62,38.41
3476.6,51.490196078431374,117.0,190.01960784313727,-65.94,3.99,30.78
3476.65,-123.50980392156863,-78.0,-298.4901960784314,42.68,-44.09,-31.68
3476.7,-123.50980392156863,297.0,221.01960784313727,-52.57,-37.65,-62.97
3476.75,281.0,150.0,-144.49019607843138,49.69,-40.73,-67.87
3476.8,-227.0,30.49019607843137,-298.4901960784314,38.06,-69.92,-93.81
3476.85,-84.0,-296.5098039215686,39.509803921568626,46.96,-63.06,-104.69
3476.9,320.5098039215686,-133.50980392156862,-113.49019607843137,60.82,-35.62,-96.26
3476.95,-108.49019607843137,-214.50980392156862,-267.4901960784314,39.78,-47.66,-87.82
3477.0,-140.49019607843138,-247.50980392156862,-283.4901960784314,41.74,-9.13,-28.53
3477.05,-252.49019607843138,313.0,298.01960784313724,-20.27,32.13,19.09
3477.1,-236.49019607843138,68.0,267.01960784313724,-1.47,17.92,20.11
3477.15,-93.49019607843137,166.0,-221.49019607843138,0.65,32.34,7.93
3477.2,-172.49019607843138,248.0,-206.49019607843138,-22.86,26.28,-2.28
3477.25,-13.490196078431373,215.0,298.01960784313724,10.91,20.51,-7.88
3477.3,-45.490196078431374,264.0,-160.49019607843138,-28.63,40.95,-3.86
3477.35,-172.49019607843138,199.0,-267.4901960784314,-12.57,55.58,12.16
3477.4,-93.49019607843137,215.0,-190.49019607843138,-33.29,59.81,6.14
3477.45,-100.0,-231.50980392156862,82.01960784313725,50.63,14.1,-10.05
3477.5,-52.0,-312.5098039215686,129.01960784313727,24.87,-2.93,9.29
3477.55,42.0,183.0,-267.4901960784314,16.44,-17.0,6.74
3477.6,-84.0,-13.0,166.0,-14.28,5.6,25.81
3477.65,-195.0,3.0,206.01960784313727,-55.9,38.53,44.5
3477.7,-179.0,-45.0,-129.49019607843138,-44.24,43.75,54.48
3477.75,-20.0,-198.50980392156862,82.01960784313725,-59.36,42.07,75.55
3477.8,-100.0,-231.50980392156862,144.01960784313727,-35.28,62.89,112.82
3477.85,-131.0,-149.50980392156862,-160.49019607843138,-51.84,10.5,106.59
3477.9,-313.5098039215686,-78.0,24.50980392156863,-49.81,3.81,60.01
3477.95,-107.50980392156863,297.0,-270.98039215686276,-16.24,-35.31,8.17
3478.0,19.49019607843137,-2.5098039215686274,175.01960784313727,-25.62,-67.37,-70.15
3478.05,-168.52941176470588,254.50980392156862,-221.49019607843138,16.3,2.48,8.0
3478.1,-56.529411764705884,-7.490196078431373,-283.4901960784314,29.84,-6.01,39.5
3478.15,-34.01960784313726,-290.0,-129.49019607843138,23.05,-23.51,28.09
3478.2,-91.50980392156863,-312.5098039215686,-252.49019607843138,28.27,-31.42,-4.21
3478.25,-186.50980392156862,297.0,221.01960784313727,1.56,-25.58,-29.79
3478.3,-313.5098039215686,281.0,-267.4901960784314,-0.11,-69.68,-73.93
3478.35,170.0,313.0,24.50980392156863,-74.06,-68.07,-42.78
3478.4,-195.0,-67.50980392156863,-317.98039215686276,-100.1,-58.48,-19.82
3478.45,131.49019607843138,68.0,196.0,108.83,-102.09,-75.26
3478.5,81.50980392156863,177.49019607843138,-52.490196078431374,-26.08,-40.98,-88.03
3478.55,272.5098039215686,101.0,-298.4901960784314,31.52,-25.12,-71.58
3478.6,-45.490196078431374,264.0,-206.49019607843138,2.22,-17.04,-31.68
3478.65,-108.49019607843137,-165.50980392156862,129.01960784313727,6.71,-4.96,-8.76
3478.7,-93.49019607843137,150.0,-144.49019607843138,4.64,12.25,4.29
3478.75,-108.49019607843137,313.0,-221.49019607843138,-11.27,20.96,21.4
3478.8,-204.49019607843138,264.0,221.01960784313727,7.2,25.48,13.67
3478.85,-204.49019607843138,68.0,-175.49019607843138,-16.87,39.86,6.11
3478.9,-172.49019607843138,133.0,252.01960784313727,-3.64,28.59,0.3
3478.95,-236.49019607843138,133.0,-206.49019607843138,-20.69,60.51,16.61
3479.0,311.01960784313724,166.0,-206.49019607843138,10.49,16.03,-30.88
3479.05,-68.0,117.0,-83.49019607843137,19.94,25.83,-1.06
3479.1,170.0,19.0,-83.49019607843137,2.89,0.77,17.69
3479.15,-36.0,101.0,101.50980392156863,1.84,-22.11,10.27
3479.2,-131.0,313.0,132.50980392156862,-45.4,15.5,36.63
3479.25,208.50980392156862,-78.0,39.509803921568626,-26.71,34.51,38.03
3479.3,-306.0,84.0,-55.98039215686274,-41.02,62.47,65.05
3479.35,-36.0,-214.50980392156862,-298.4901960784314,-14.88,65.24,109.15
3479.4,90.0,30.49019607843137,67.01960784313725,-39.55,48.05,96.58
3479.45,74.0,-160.0,-36.490196078431374,-56.88,11.13,107.64
3479.5,106.0,84.0,86.50980392156863,-54.15,5.53,45.59
3479.55,-266.5098039215686,30.49019607843137,206.01960784313727,-31.47,-69.92,-29.27
3479.6,-59.509803921568626,13.490196078431373,-298.4901960784314,-25.21,-106.53,-79.88
3479.65,-238.0392156862745,-219.49019607843138,224.50980392156862,28.37,52.04,20.11
3479.7,-56.529411764705884,-225.0,78.52941176470588,72.09,0.42,37.82
3479.75,-209.01960784313727,-290.0,-98.49019607843137,30.93,2.03,9.54
3479.8,-234.50980392156862,183.0,144.01960784313727,9.19,-5.38,-10.58
3479.85,-250.50980392156862,183.0,-283.4901960784314,45.59,-38.0,-28.6
3479.9,-139.50980392156862,166.0,-83.49019607843137,-27.97,-42.1,-85.97
3479.95,249.0,199.0,-144.49019607843138,-48.37,-92.85,-94.26
3480.0,11.0,-312.5098039215686,-67.49019607843137,59.73,-78.32,-89.85
3480.05,49.509803921568626,-198.50980392156862,-21.49019607843137,19.31,-78.6,-92.3
3480.1,-259.0,-280.5098039215686,-175.49019607843138,45.1,-78.57,-75.15
3480.15,-29.49019607843137,-51.509803921568626,298.01960784313724,35.72,-49.38,-39.59
3480.2,-188.49019607843138,248.0,-313.4901960784314,10.94,-10.63,-13.48
3480.25,-188.49019607843138,248.0,252.01960784313727,-23.7,11.76,19.83
3480.3,-188.49019607843138,150.0,129.01960784313727,8.7,7.59,14.68
3480.35,-77.49019607843137,166.0,-221.49019607843138,5.13,23.1,2.57
3480.4,-61.490196078431374,183.0,-221.49019607843138,-21.49,23.8,-3.93
3480.45,-140.49019607843138,248.0,282.01960784313724,11.22,24.46,-2.28
3480.5,-188.49019607843138,281.0,-190.49019607843138,-13.76,41.12,-2.95
3480.55,-140.49019607843138,297.0,313.01960784313724,9.61,40.95,3.45
3480.6,-156.49019607843138,183.0,-175.49019607843138,7.44,48.93,14.3
3480.65,-156.49019607843138,248.0,-237.49019607843138,-7.39,44.62,14.58
3480.7,-172.49019607843138,133.0,-160.49019607843138,-12.99,50.89,-8.2
3480.75,-172.49019607843138,248.0,-206.49019607843138,30.12,5.14,-70.29
3480.8,-266.5098039215686,-198.50980392156862,-301.98039215686276,2.79,24.01,3.55
3480.85,-259.0,-2.5098039215686274,-163.98039215686273,-47.81,26.77,34.67
3480.9,-131.0,-127.0,135.0,-3.3,7.45,16.08
3480.95,-259.0,-280.5098039215686,-98.49019607843137,-69.23,65.38,79.71
3481.0,-227.0,-62.0,-36.490196078431374,-18.13,71.33,108.17
3481.05,-163.0,-100.50980392156863,236.01960784313727,-44.77,8.19,127.49
3481.1,138.0,68.0,286.5098039215686,-80.08,16.94,103.44
3481.15,-250.50980392156862,-29.0,221.01960784313727,-53.13,-6.2,53.9
3481.2,-202.50980392156862,30.49019607843137,-101.98039215686275,-2.48,-44.18,-56.27
3481.25,313.0,-231.50980392156862,-144.49019607843138,-105.7,-63.67,-108.98
3481.3,34.94117647058823,-34.98039215686274,298.01960784313724,44.51,-0.29,24.18
3481.35,203.98039215686273,313.0,-270.98039215686276,35.41,-12.05,54.28
3481.4,194.49019607843138,-94.0,313.01960784313724,23.06,-11.21,37.06
3481.45,-313.5098039215686,-312.5098039215686,221.01960784313727,40.94,-9.6,12.63
3481.5,-202.50980392156862,-149.50980392156862,113.01960784313725,-10.43,-18.8,-23.13
3481.55,-234.50980392156862,35.0,-21.49019607843137,2.51,-54.12,-65.83
3481.6,313.0,150.0,209.50980392156862,-26.56,-70.01,-86.97
3481.65,74.0,166.0,116.50980392156863,58.76,-89.68,-93.62
3481.7,-275.0,-165.50980392156862,-6.490196078431373,8.39,-67.84,-95.12
3481.75,304.5098039215686,297.0,-113.49019607843137,61.8,-80.93,-83.92
3481.8,208.50980392156862,-263.5098039215686,-175.49019607843138,34.68,-65.49,-66.81
3481.85,-124.49019607843137,281.0,-267.4901960784314,5.0,-22.09,-27.92
3481.9,-172.49019607843138,183.0,236.01960784313727,-29.43,1.87,8.64
3481.95,-140.49019607843138,150.0,159.01960784313727,8.15,-4.7,11.34
3482.0,-140.49019607843138,-296.5098039215686,298.01960784313724,-0.8,20.49,5.88
3482.05,-156.49019607843138,248.0,252.01960784313727,-2.62,24.66,6.19
3482.1,-93.49019607843137,248.0,-313.4901960784314,11.86,27.04,3.15
3482.15,-204.49019607843138,215.0,-206.49019607843138,-0.63,44.71,4.34
3482.2,-156.49019607843138,232.0,313.01960784313724,8.74,40.34,1.89
3482.25,-93.49019607843137,264.0,-221.49019607843138,-1.19,53.01,2.66
3482.3,-188.49019607843138,183.0,-190.49019607843138,-5.95,51.15,3.67
3482.35,-204.49019607843138,248.0,-160.49019607843138,-16.62,50.03,12.63
3482.4,-236.49019607843138,68.0,39.509803921568626,8.46,64.38,4.83
3482.45,-267.4901960784314,264.0,55.509803921568626,30.16,-0.29,-60.68
3482.5,-107.50980392156863,3.0,267.01960784313724,0.06,23.47,1.71
3482.55,256.5098039215686,-149.50980392156862,-270.98039215686276,-40.0,25.04,37.34
3482.6,-131.0,101.0,-190.49019607843138,-8.12,1.52,35.8
3482.65,27.0,313.0,-49.0,-80.25,48.18,77.56
3482.7,-195.0,-143.0,-160.49019607843138,-9.52,82.48,119.7
3482.75,138.0,-35.509803921568626,-163.98039215686273,-34.72,44.54,118.12
3482.8,35.490196078431374,-209.0,-237.49019607843138,-64.4,9.68,92.4
3482.85,-59.509803921568626,-312.5098039215686,313.01960784313724,-87.71,-5.75,59.01
3482.9,-170.50980392156862,-280.5098039215686,190.01960784313727,56.48,-3.82,-68.1
3482.95,-289.01960784313724,264.0,-175.49019607843138,11.89,3.69,4.37
3483.0,-101.54901960784314,194.01960784313727,178.50980392156862,59.84,-21.85,37.9
3483.05,-146.01960784313727,303.5098039215686,24.50980392156863,27.29,-22.69,1.68
3483.1,-123.50980392156863,232.0,175.01960784313727,15.53,-19.68,9.1
3483.15,-313.5098039215686,264.0,221.01960784313727,28.83,-12.78,-9.13
3483.2,-186.50980392156862,199.0,129.01960784313727,-23.38,-29.3,-44.48
3483.25,297.0,3.0,-52.490196078431374,-16.1,-57.93,-69.08
3483.3,-4.0,313.0,39.509803921568626,9.48,-80.19,-91.52
3483.35,-4.0,35.0,209.50980392156862,-3.15,-73.58,-89.14
3483.4,320.5098039215686,-182.50980392156862,-129.49019607843138,75.07,-93.04,-71.81
3483.45,193.50980392156862,-182.50980392156862,-221.49019607843138,32.19,-76.9,-63.34
3483.5,49.509803921568626,101.0,-83.49019607843137,16.06,-43.37,-32.75
3483.55,-93.49019607843137,199.0,221.01960784313727,1.85,-6.52,1.68
3483.6,-93.49019607843137,166.0,144.01960784313727,-15.08,-4.17,7.94
3483.65,-13.490196078431373,166.0,221.01960784313727,7.62,0.37,4.34
3483.7,-124.49019607843137,313.0,-313.4901960784314,-14.77,20.11,3.39
3483.75,-124.49019607843137,297.0,267.01960784313724,8.92,22.17,3.46
3483.8,-188.49019607843138,281.0,-298.4901960784314,-1.19,34.63,7.1
3483.85,-236.49019607843138,232.0,-252.49019607843138,2.62,46.92,8.71
3483.9,-172.49019607843138,215.0,-283.4901960784314,8.67,48.25,4.76
3483.95,-140.49019607843138,166.0,-190.49019607843138,0.13,49.02,-3.91
3484.0,-172.49019607843138,183.0,-236.49019607843138,6.71,42.72,-0.73
3484.05,-188.49019607843138,117.0,24.50980392156863,-29.19,42.68,3.29
3484.1,-267.4901960784314,199.0,-175.49019607843138,25.3,53.32,-11.82
3484.15,-252.49019607843138,-280.5098039215686,313.01960784313724,-13.23,34.49,-39.33
3484.2,265.0,313.0,-163.98039215686273,11.58,24.1,5.95
3484.25,-116.0,68.0,236.01960784313727,-57.01,18.36,51.66
3484.3,-36.0,-160.0,289.0,-22.36,5.86,23.48
3484.35,-52.0,297.0,43.0,-50.26,50.59,71.99
3484.4,-68.0,183.0,113.01960784313725,-20.58,83.67,107.34
3484.45,-227.0,-214.50980392156862,140.52941176470588,-46.37,48.81,129.46
3484.5,281.0,-209.0,286.5098039215686,-63.31,11.32,96.98
3484.55,281.0,166.0,-233.0,-65.45,7.4,35.31
3484.6,-202.50980392156862,-84.50980392156863,-9.980392156862745,0.76,-12.85,-64.64
3484.65,51.490196078431374,-198.50980392156862,159.01960784313727,-52.32,-47.88,-57.64
3484.7,-19.568627450980394,-50.98039215686274,-52.490196078431374,32.44,-31.79,17.85
3484.75,219.98039215686273,-241.0,67.01960784313725,63.24,-39.38,45.6
3484.8,131.49019607843138,19.0,-283.4901960784314,-0.94,-18.17,13.19
3484.85,-266.5098039215686,199.0,236.01960784313727,59.6,-23.53,-16.02
3484.9,-139.50980392156862,-231.50980392156862,175.01960784313727,10.28,-29.79,-38.67
3484.95,201.0,183.0,-267.4901960784314,39.23,-47.78,-53.23
3485.0,-4.0,183.0,-36.490196078431374,-36.85,-64.27,-75.17
3485.05,90.0,35.0,147.50980392156862,44.69,-99.65,-80.84
3485.1,-211.0,-198.50980392156862,-83.49019607843137,17.39,-86.18,-82.87
3485.15,288.5098039215686,232.0,-113.49019607843137,37.16,-102.94,-82.07
3485.2,81.50980392156863,84.0,39.509803921568626,18.68,-70.67,-56.76
3485.25,-172.49019607843138,264.0,190.01960784313727,-4.9,-17.47,-12.94
3485.3,-220.49019607843138,84.0,221.01960784313727,-24.78,-5.61,9.66
3485.35,-93.49019607843137,101.0,159.01960784313727,0.45,-3.05,9.38
3485.4,-140.49019607843138,232.0,-298.4901960784314,-12.84,20.53,0.35
3485.45,-204.49019607843138,232.0,298.01960784313724,-7.38,21.89,-0.87
3485.5,-220.49019607843138,215.0,-298.4901960784314,2.76,33.13,10.08
3485.55,-236.49019607843138,199.0,-298.4901960784314,-14.21,49.4,6.61
3485.6,-220.49019607843138,215.0,267.01960784313724,11.75,47.79,-1.01
3485.65,-188.49019607843138,248.0,-236.49019607843138,-10.22,57.21,2.03
3485.7,-252.49019607843138,215.0,-283.4901960784314,0.94,42.16,12.63
3485.75,-204.49019607843138,183.0,132.50980392156862,-17.57,41.21,9.38
3485.8,-252.49019607843138,183.0,-83.49019607843137,1.25,67.43,-3.21
3485.85,-267.4901960784314,215.0,-175.49019607843138,-19.91,34.7,-62.85
3485.9,-139.50980392156862,101.0,-101.98039215686275,19.45,31.03,9.83
3485.95,-36.0,281.0,-117.98039215686275,-48.23,11.39,40.63
3486.0,-84.0,-160.0,-64.0,-4.76,-13.73,26.88
3486.05,-259.0,-182.50980392156862,-267.4901960784314,-53.93,19.79,76.37
3486.1,-163.0,248.0,-67.49019607843137,-68.53,82.3,121.17
3486.15,-84.0,-231.50980392156862,-286.98039215686276,-29.36,40.65,112.84
3486.2,-234.50980392156862,-29.0,313.01960784313724,-51.87,8.7,108.74
3486.25,-139.50980392156862,-67.50980392156863,175.01960784313727,-117.56,-6.38,31.81
3486.3,-218.50980392156862,297.0,313.01960784313724,-4.76,-31.23,-136.63
3486.35,83.49019607843137,313.0,5.019607843137255,41.75,-1.16,-35.94
3486.4,50.94117647058823,107.50980392156863,144.01960784313727,118.5,-0.74,55.02
3486.45,-18.019607843137255,90.50980392156863,-67.49019607843137,18.19,-4.14,29.12
3486.5,-186.50980392156862,248.0,82.01960784313725,57.36,-22.06,98.24
3486.55,-282.5098039215686,-13.0,-6.490196078431373,108.53,-23.32,40.18
3486.6,-266.5098039215686,-182.50980392156862,-101.98039215686275,63.27,-11.0,10.81
3486.65,265.0,117.0,313.01960784313724,66.49,-43.55,-41.36
3486.7,154.0,183.0,270.5098039215686,-70.21,-56.08,-65.41
3486.75,201.0,-45.0,147.50980392156862,-29.57,-65.67,-78.01
3486.8,-195.0,183.0,70.50980392156863,-37.45,-60.42,-90.26
3486.85,-275.0,248.0,-190.49019607843138,96.7,-85.65,-71.74
3486.9,208.50980392156862,68.0,-175.49019607843138,87.81,-114.21,-34.05
3486.95,145.50980392156862,-45.0,190.01960784313727,37.69,-31.02,-22.18
3487.0,-86.98039215686275,-198.50980392156862,-86.98039215686275,-8.61,18.22,38.25
3487.05,49.509803921568626,237.50980392156862,144.01960784313727,-5.49,21.61,31.74
3487.1,304.5098039215686,117.0,-190.49019607843138,19.84,-22.3,-21.55
3487.15,145.50980392156862,183.0,-113.49019607843137,-67.9,-8.16,-59.7
3487.2,-77.49019607843137,3.0,-298.4901960784314,-61.46,6.28,-34.26
3487.25,295.01960784313724,68.0,298.01960784313724,-25.65,15.98,11.58
3487.3,-93.49019607843137,84.0,144.01960784313727,-11.34,43.1,33.11
3487.35,-156.49019607843138,183.0,52.01960784313726,-32.44,68.16,9.31
3487.4,-156.49019607843138,199.0,-252.49019607843138,-45.5,66.55,-4.93
3487.45,97.50980392156863,133.0,-252.49019607843138,-33.49,63.09,-17.28
3487.5,113.50980392156863,232.0,-221.49019607843138,-20.23,44.19,5.07
3487.55,2.5098039215686274,199.0,-298.4901960784314,10.7,8.42,25.16
3487.6,-61.490196078431374,215.0,-83.49019607843137,-86.27,71.21,80.08
3487.65,-220.49019607843138,84.0,70.50980392156863,-29.78,21.44,2.66
3487.7,-250.50980392156862,95.49019607843137,113.01960784313725,-3.78,19.37,7.77
3487.75,-163.0,79.49019607843137,267.01960784313724,3.88,19.02,35.8
3487.8,297.0,-78.0,206.01960784313727,-42.56,38.48,42.98
3487.85,288.5098039215686,-241.0,132.50980392156862,-62.19,86.64,56.94
3487.9,-259.0,150.0,-144.49019607843138,-19.04,43.66,53.72
3487.95,-313.5098039215686,-67.50980392156863,-190.49019607843138,-68.04,12.44,65.9
3488.0,-43.509803921568626,-280.5098039215686,-129.49019607843138,-39.65,-36.97,12.98
3488.05,131.49019607843138,-165.50980392156862,98.01960784313725,-122.36,-53.42,-88.93
3488.1,-170.50980392156862,133.0,-283.4901960784314,-42.03,-114.95,-138.8
3488.15,270.96078431372547,286.5098039215686,224.50980392156862,47.77,1.17,45.18
3488.2,197.47058823529412,133.0,-255.98039215686273,78.67,10.45,87.29
3488.25,-18.019607843137255,117.0,144.01960784313727,44.44,0.09,44.48
3488.3,163.49019607843138,281.0,-24.980392156862745,86.23,-8.51,2.73
3488.35,313.0,-165.50980392156862,298.01960784313724,5.45,7.23,-48.68
3488.4,313.0,-116.50980392156863,-190.49019607843138,69.82,-56.29,-67.89
3488.45,-52.0,-18.50980392156863,-6.490196078431373,-7.66,-54.75,-67.65
3488.5,-211.0,215.0,147.50980392156862,73.7,-109.56,-78.32
3488.55,-163.0,-165.50980392156862,209.50980392156862,25.79,-82.29,-74.54
3488.6,288.5098039215686,199.0,86.50980392156863,11.33,-80.65,-63.48
3488.65,177.50980392156862,215.0,-283.4901960784314,41.26,-86.98,-45.81
3488.7,-29.49019607843137,166.0,-144.49019607843138,-1.01,-35.01,-24.74
3488.75,-204.49019607843138,166.0,113.01960784313725,-13.72,-3.89,7.73
3488.8,-188.49019607843138,264.0,67.01960784313725,13.64,-8.13,12.46
3488.85,-172.49019607843138,264.0,236.01960784313727,1.36,23.22,2.83
3488.9,-267.4901960784314,215.0,298.01960784313724,-1.01,32.6,3.67
3488.95,-299.4901960784314,199.0,190.01960784313727,14.48,27.53,-1.5
3489.0,-236.49019607843138,232.0,-206.49019607843138,-1.08,43.7,-3.67
3489.05,-267.4901960784314,232.0,-113.49019607843137,3.07,37.68,-8.5
3489.1,-220.49019607843138,215.0,298.01960784313724,2.02,53.29,-2.76
3489.15,-283.4901960784314,232.0,-113.49019607843137,-17.32,44.43,5.7
3489.2,-236.49019607843138,199.0,-206.49019607843138,20.19,26.86,5.0
3489.25,-267.4901960784314,19.0,224.50980392156862,22.32,31.1,-37.55
3489.3,304.5098039215686,-280.5098039215686,-267.4901960784314,5.0,66.48,2.24
3489.35,320.5098039215686,133.0,109.52941176470588,8.22,31.2,13.79
3489.4,-20.0,-62.0,39.509803921568626,-5.32,-17.51,22.99
3489.45,-163.0,-78.0,320.0,-35.56,15.59,43.01
3489.5,-259.0,-45.0,313.01960784313724,-48.23,57.59,63.38
3489.55,-116.0,-247.50980392156862,-167.47058823529412,-38.81,111.7,119.66
3489.6,-290.0,-263.5098039215686,63.529411764705884,-31.11,51.43,103.53
3489.65,313.0,-143.0,-187.0,-115.39,16.75,93.45
3489.7,-75.50980392156863,-258.0,178.50980392156862,-88.72,12.86,41.61
3489.75,4.490196078431373,46.490196078431374,-101.98039215686275,-47.25,13.81,-17.18
3489.8,-107.50980392156863,13.490196078431373,113.01960784313725,33.7,-27.62,-15.78
3489.85,-255.58823529411765,101.52941176470588,-230.50980392156862,74.72,-69.83,50.85
3489.9,-130.01960784313727,-307.0,178.50980392156862,176.5,-83.83,30.1
3489.95,83.49019607843137,-35.509803921568626,175.01960784313727,71.04,-69.69,13.79
3490.0,-202.50980392156862,-127.0,-67.49019607843137,103.52,-72.11,-26.63
3490.05,217.0,133.0,252.01960784313727,54.1,-65.25,-52.77
3490.1,11.0,68.0,-252.49019607843138,104.85,-98.36,-38.07
3490.15,-179.0,297.0,162.50980392156862,-28.66,-59.37,-31.42
3490.2,288.5098039215686,-127.0,132.50980392156862,51.65,-85.9,-51.23
3490.25,304.5098039215686,52.0,313.01960784313724,14.24,-63.78,-58.51
3490.3,113.50980392156863,-29.0,-237.49019607843138,0.69,-59.37,-39.05
3490.35,18.50980392156863,-160.0,101.50980392156863,-30.38,-34.27,-17.91
3490.4,-108.49019607843137,303.5098039215686,-236.49019607843138,-26.74,-9.35,-12.59
3490.45,-45.490196078431374,-45.0,-298.4901960784314,-17.11,-12.08,-5.73
3490.5,-108.49019607843137,-62.0,-283.4901960784314,-22.92,8.77,-4.75
3490.55,-299.4901960784314,-45.0,206.01960784313727,-35.49,35.82,-3.0
3490.6,311.01960784313724,52.0,221.01960784313727,-21.94,28.4,-10.25
3490.65,-204.49019607843138,117.0,236.01960784313727,-13.82,38.94,-11.79
3490.7,-188.49019607843138,52.0,-313.4901960784314,-43.71,58.12,-10.7
3490.75,-188.49019607843138,35.0,313.01960784313724,-22.19,50.94,-18.54
3490.8,-61.490196078431374,150.0,282.01960784313724,-10.22,57.35,-17.63
3490.85,-188.49019607843138,133.0,-206.49019607843138,-20.79,62.04,-11.12
3490.9,-220.49019607843138,133.0,-221.49019607843138,-14.56,58.61,8.29
3490.95,-140.49019607843138,68.0,-36.490196078431374,-67.51,44.64,18.72
3491.0,161.50980392156862,199.0,24.50980392156863,-21.17,-17.58,-75.38
3491.05,-298.5098039215686,68.0,267.01960784313724,-49.17,36.49,22.64
3491.1,-227.0,-13.0,175.01960784313727,-71.75,20.6,37.97
3491.15,-163.0,-160.0,193.50980392156862,-59.67,5.23,28.91
3491.2,-275.0,-214.50980392156862,-236.49019607843138,-180.53,66.06,80.78
3491.25,-290.0,68.0,-129.49019607843138,-77.8,72.26,121.1
3491.3,249.0,46.490196078431374,-86.98039215686275,-27.37,11.99,131.07
3491.35,-170.50980392156862,-312.5098039215686,190.01960784313727,-38.39,-2.77,87.11
3491.4,-170.50980392156862,62.490196078431374,-160.49019607843138,-50.4,-28.99,-2.48
3491.45,67.49019607843137,-296.5098039215686,129.01960784313727,62.89,26.23,-75.63
3491.5,274.4901960784314,-280.5098039215686,-21.49019607843137,80.32,-40.71,1.4
3491.55,129.94117647058823,172.50980392156862,147.50980392156862,62.99,-69.38,61.04
3491.6,-82.01960784313725,-121.49019607843137,104.0,93.55,-73.12,15.08
3491.65,-27.50980392156863,-165.50980392156862,-206.49019607843138,46.37,-63.6,-11.23
3491.7,-234.50980392156862,232.0,267.01960784313724,-30.06,-16.04,-45.07
3491.75,233.0,313.0,-86.98039215686275,-30.06,12.83,-63.06
3491.8,11.0,264.0,144.01960784313727,26.0,-40.12,-113.81
3491.85,-52.0,281.0,132.50980392156862,-14.07,-78.34,-120.6
3491.9,-195.0,117.0,-95.0,122.11,-124.61,-107.9
3491.95,-45.490196078431374,226.49019607843138,70.50980392156863,-4.44,-43.02,-47.87
3492.0,-45.490196078431374,-29.0,-144.49019607843138,64.29,-70.5,-28.55
3492.05,129.50980392156862,166.0,-37.490196078431374,-6.68,-47.22,-12.07
3492.1,-108.49019607843137,68.0,-283.4901960784314,-38.11,17.06,31.01
3492.15,216.01960784313727,101.0,82.01960784313725,54.56,-22.62,10.08
3492.2,-29.49019607843137,297.0,-283.4901960784314,3.56,4.15,12.28
3492.25,-93.49019607843137,183.0,-298.4901960784314,-11.69,29.28,16.17
3492.3,-108.49019607843137,264.0,190.01960784313727,10.67,9.57,1.22
3492.35,-45.490196078431374,313.0,282.01960784313724,14.55,24.48,-9.48
3492.4,-172.49019607843138,183.0,-283.4901960784314,-7.1,44.47,0.7
3492.45,-156.49019607843138,150.0,190.01960784313727,25.96,47.86,-4.68
3492.5,-188.49019607843138,313.0,-313.4901960784314,-24.74,71.31,2.13
3492.55,-315.4901960784314,150.0,-313.4901960784314,2.76,47.3,14.31
3492.6,263.01960784313724,-263.5098039215686,-160.49019607843138,-40.98,74.64,40.53
3492.65,295.01960784313724,133.0,39.509803921568626,-42.42,78.17,7.24
3492.7,97.50980392156863,183.0,270.5098039215686,-8.01,-3.79,-97.36
3492.75,265.0,303.5098039215686,-113.49019607843137,-28.8,60.15,30.55
3492.8,-84.0,-13.0,36.01960784313726,-14.8,26.69,33.77
3492.85,313.0,-13.0,39.509803921568626,-15.96,1.14,49.21
3492.9,-84.0,-35.509803921568626,132.50980392156862,-84.52,53.68,83.3
3492.95,-275.0,-13.0,-160.49019607843138,-14.94,78.31,90.79
3493.0,-36.0,-231.50980392156862,109.52941176470588,-26.18,18.11,106.33
3493.05,249.0,183.0,67.01960784313725,-85.47,0.19,88.48
3493.1,-218.50980392156862,-2.5098039215686274,206.01960784313727,-96.0,-31.44,20.93
3493.15,51.490196078431374,-312.5098039215686,113.01960784313725,12.49,1.42,-83.5
3493.2,226.49019607843138,-263.5098039215686,-160.49019607843138,4.82,-16.07,-46.05
3493.25,25.45098039215686,90.50980392156863,-67.49019607843137,57.71,-47.75,47.28
3493.3,-66.01960784313725,237.50980392156862,-98.49019607843137,33.52,-47.5,24.5
3493.35,163.49019607843138,183.0,221.01960784313727,44.72,-31.79,16.13
3493.4,-91.50980392156863,-280.5098039215686,-40.98039215686274,44.09,-15.58,-9.02
3493.45,265.0,248.0,252.01960784313727,-19.14,-11.7,-36.15
3493.5,74.0,-280.5098039215686,282.01960784313724,79.16,-68.22,-78.39
3493.55,42.0,133.0,209.50980392156862,-57.71,-24.33,-78.01
3493.6,-259.0,52.0,-36.490196078431374,101.04,-86.11,-91.97
3493.65,-243.0,13.490196078431373,-36.490196078431374,32.19,-51.28,-58.37
3493.7,145.50980392156862,101.0,-175.49019607843138,81.12,-76.24,-65.62
3493.75,-306.0,101.0,-98.49019607843137,15.04,-49.67,-40.87
3493.8,34.509803921568626,3.0,-252.49019607843138,-3.95,-28.22,-14.1
3493.85,-61.490196078431374,3.0,298.01960784313724,-23.8,-11.8,10.81
3493.9,-13.490196078431373,84.0,-55.98039215686274,17.21,-17.93,6.3
3493.95,-45.490196078431374,215.0,-298.4901960784314,-15.61,9.64,5.95
3494.0,-140.49019607843138,133.0,206.01960784313727,-10.22,17.31,5.98
3494.05,-77.49019607843137,68.0,236.01960784313727,-8.82,25.78,3.88
3494.1,-204.49019607843138,166.0,-236.49019607843138,-19.88,48.98,6.89
3494.15,-252.49019607843138,133.0,252.01960784313727,-0.59,42.86,8.29
3494.2,-220.49019607843138,84.0,-190.49019607843138,10.49,48.28,-8.46
3494.25,-172.49019607843138,199.0,313.01960784313724,5.94,52.38,-9.62
3494.3,-252.49019607843138,101.0,-221.49019607843138,-1.4,58.89,-5.63
3494.35,-267.4901960784314,150.0,-160.49019607843138,-11.58,54.51,-0.83
3494.4,-267.4901960784314,52.0,-144.49019607843138,-58.06,111.32,14.7
3494.45,-108.49019607843137,248.0,55.509803921568626,12.17,51.78,-23.44
3494.5,178.49019607843138,3.0,313.01960784313724,-16.8,25.25,26.25
3494.55,-68.0,-225.0,-95.0,-12.42,-7.08,28.91
3494.6,90.0,19.0,150.0,-38.08,-13.16,18.16
3494.65,-195.0,199.0,9.509803921568627,-49.56,64.17,78.85
3494.7,-195.0,117.0,-13.470588235294118,-30.87,63.96,98.63
3494.75,-195.0,-29.0,-163.98039215686273,-15.15,11.74,106.43
3494.8,-123.50980392156863,-312.5098039215686,-203.0,-31.46,-15.55,105.49
3494.85,-186.50980392156862,-35.509803921568626,-98.49019607843137,-117.39,6.07,34.75
3494.9,313.0,84.0,-55.98039215686274,-83.51,35.48,-50.39
3494.95,-170.50980392156862,232.0,36.01960784313726,12.49,-62.24,-78.53
3495.0,-124.05882352941177,-23.49019607843137,-310.0,33.7,-18.56,29.33
3495.05,-104.52941176470588,25.50980392156863,221.01960784313727,74.79,-48.9,35.63
3495.1,-146.01960784313727,-258.0,-6.490196078431373,13.4,-34.31,18.51
3495.15,-234.50980392156862,248.0,175.01960784313727,40.66,-39.77,8.26
3495.2,-298.5098039215686,264.0,113.01960784313725,-38.08,-20.03,-22.25
3495.25,201.0,-13.0,-236.49019607843138,-0.45,-26.47,-43.53
3495.3,90.0,62.490196078431374,-298.4901960784314,66.35,-37.42,-45.7
3495.35,-163.0,-263.5098039215686,-175.49019607843138,-12.39,-55.97,-75.0
3495.4,11.0,101.0,178.50980392156862,57.64,-80.26,-90.57
3495.45,-306.0,232.0,24.50980392156863,44.86,-86.56,-92.57
3495.5,193.50980392156862,-13.0,9.509803921568627,36.11,-68.99,-69.92
3495.55,-108.49019607843137,248.0,-283.4901960784314,-2.45,-34.13,-30.02
3495.6,-140.49019607843138,133.0,252.01960784313727,-15.82,-27.9,0.59
3495.65,-29.49019607843137,150.0,236.01960784313727,21.76,-21.78,11.37
3495.7,49.509803921568626,117.0,175.01960784313727,-18.2,9.85,4.62
3495.75,-156.49019607843138,101.0,313.01960784313724,-6.65,11.81,-0.83
3495.8,-108.49019607843137,117.0,298.01960784313724,1.43,19.86,-2.34
3495.85,-220.49019607843138,199.0,298.01960784313724,-3.5,35.37,1.15
3495.9,-252.49019607843138,133.0,313.01960784313724,9.79,43.17,2.06
3495.95,-236.49019607843138,166.0,-313.4901960784314,2.3,53.64,4.06
3496.0,-252.49019607843138,215.0,-298.4901960784314,-4.65,64.45,7.87
3496.05,-315.4901960784314,35.0,-175.49019607843138,-5.7,58.15,6.33
3496.1,-299.4901960784314,183.0,-175.49019607843138,-5.18,50.21,-1.29
3496.15,-252.49019607843138,35.0,-6.490196078431373,-64.33,119.51,27.26
3496.2,-204.49019607843138,35.0,-80.0,-21.73,14.86,-53.12
3496.25,163.49019607843138,-176.0,313.01960784313724,-20.93,13.77,-19.49
3496.3,-179.0,313.0,252.01960784313727,-29.4,28.72,33.0
3496.35,-36.0,264.0,159.01960784313727,-6.68,5.3,24.01
3496.4,-36.0,-231.50980392156862,286.5098039215686,-58.2,29.73,64.57
3496.45,-163.0,-78.0,193.50980392156862,-69.12,68.06,87.18
3496.5,-52.0,52.0,129.01960784313727,-34.75,81.5,99.71
3496.55,-36.0,297.0,-283.4901960784314,-25.13,32.5,117.91
3496.6,-218.50980392156862,-280.5098039215686,-190.49019607843138,-89.81,30.15,49.35
3496.65,217.0,-51.509803921568626,144.01960784313727,-76.86,6.04,-59.21
3496.7,35.490196078431374,166.0,113.01960784313725,-16.45,-134.34,-145.84
3496.75,111.96078431372548,-258.0,193.50980392156862,41.57,-14.57,21.42
3496.8,261.47058823529414,-225.0,-224.98039215686273,90.64,-38.72,47.91
3496.85,-177.01960784313727,-192.0,55.509803921568626,15.46,-27.41,30.27
3496.9,-107.50980392156863,215.0,206.01960784313727,63.31,-38.44,21.45
3496.95,-250.50980392156862,313.0,190.01960784313727,-20.75,-17.23,-15.74
3497.0,281.0,52.0,-283.4901960784314,-7.66,-48.83,-59.39
3497.05,201.0,-263.5098039215686,-175.49019607843138,11.4,-46.91,-82.21
3497.1,-52.0,264.0,-160.49019607843138,9.34,-56.18,-100.37
3497.15,-290.0,248.0,193.50980392156862,62.19,-90.34,-86.51
3497.2,320.5098039215686,-182.50980392156862,-160.49019607843138,48.99,-77.95,-70.24
3497.25,81.50980392156863,248.0,-267.4901960784314,47.35,-61.99,-40.07
3497.3,-45.490196078431374,281.0,252.01960784313727,3.35,-23.25,-12.94
3497.35,-124.49019607843137,68.0,-252.49019607843138,7.52,-11.91,5.91
3497.4,-29.49019607843137,133.0,221.01960784313727,27.05,-17.3,13.61
3497.45,-93.49019607843137,166.0,-283.4901960784314,-2.45,9.01,4.62
3497.5,-204.49019607843138,150.0,159.01960784313727,-7.7,29.14,1.47
3497.55,-204.49019607843138,35.0,252.01960784313727,5.8,30.43,0.7
3497.6,-188.49019607843138,133.0,252.01960784313727,13.71,37.29,-0.13
3497.65,-172.49019607843138,52.0,-283.4901960784314,5.14,42.86,-2.86
3497.7,-188.49019607843138,84.0,-267.4901960784314,1.46,55.46,-4.23
3497.75,-267.4901960784314,117.0,-190.49019607843138,-3.95,62.84,-1.53
3497.8,-252.49019607843138,150.0,-236.49019607843138,-0.24,56.37,1.54
3497.85,-236.49019607843138,199.0,-175.49019607843138,-13.96,48.77,-0.2
3497.9,-204.49019607843138,35.0,-98.49019607843137,-55.96,67.71,26.74
3497.95,-252.49019607843138,101.0,-83.49019607843137,-46.76,3.13,-91.48
3498.0,265.0,-13.0,-313.4901960784314,-47.49,18.95,-8.18
3498.05,240.50980392156862,-296.5098039215686,113.01960784313725,-14.98,0.93,14.1
3498.1,217.0,35.0,147.50980392156862,13.78,-21.08,18.69
3498.15,27.0,313.0,-310.0,-45.5,26.93,68.56
3498.2,-36.0,-45.0,-172.0,-47.7,75.86,108.99
3498.25,-179.0,-263.5098039215686,-75.47058823529412,-32.9,81.5,115.18
3498.3,-20.0,35.0,205.01960784313727,-22.4,26.41,114.83
3498.35,313.0,84.0,-264.0,-58.69,-3.44,96.32
3498.4,-298.5098039215686,-165.50980392156862,-129.49019607843138,-107.1,20.88,1.82
3498.45,147.49019607843138,248.0,6.019607843137255,42.1,40.65,-74.44
3498.5,-98.01960784313725,-247.50980392156862,82.01960784313725,-11.62,-17.61,-10.04
3498.55,97.94117647058823,63.01960784313726,-156.0,73.49,-94.16,62.4
3498.6,-209.01960784313727,-209.0,209.50980392156862,43.22,-56.04,29.78
3498.65,-218.50980392156862,-263.5098039215686,236.01960784313727,106.81,-30.18,-10.39
3498.7,-170.50980392156862,-263.5098039215686,236.01960784313727,81.65,4.15,-26.7
3498.75,-298.5098039215686,215.0,313.01960784313724,-37.24,-3.54,-48.47
3498.8,122.0,52.0,-83.49019607843137,-2.59,-47.82,-66.21
3498.85,-68.0,183.0,162.50980392156862,3.07,-69.62,-104.26
3498.9,-20.0,-312.5098039215686,55.509803921568626,28.94,-87.37,-88.54
3498.95,-306.0,248.0,-190.49019607843138,15.85,-72.21,-74.3
3499.0,129.50980392156862,297.0,-298.4901960784314,14.9,-62.9,-42.97
3499.05,97.50980392156863,68.0,-236.49019607843138,15.88,-42.36,-23.51
3499.1,113.50980392156863,281.0,221.01960784313727,19.42,-15.13,-0.17
3499.15,65.50980392156863,215.0,267.01960784313724,-10.67,0.86,8.82
3499.2,81.50980392156863,150.0,129.01960784313727,13.47,-2.18,6.16
3499.25,-13.490196078431373,232.0,-252.49019607843138,-18.3,14.68,3.74
3499.3,-124.49019607843137,183.0,313.01960784313724,-2.87,13.88,2.55
3499.35,-124.49019607843137,248.0,236.01960784313727,0.9,22.7,2.94
3499.4,-188.49019607843138,183.0,-206.49019607843138,-3.53,28.33,-7.03
3499.45,-156.49019607843138,248.0,282.01960784313724,3.25,31.03,-15.08
3499.5,-204.49019607843138,183.0,-206.49019607843138,-4.06,43.42,-15.15
3499.55,-267.4901960784314,232.0,282.01960784313724,9.69,45.73,-13.36
3499.6,295.01960784313724,232.0,-190.49019607843138,-24.71,60.18,0.31
3499.65,311.01960784313724,133.0,-221.49019607843138,-19.56,74.04,20.23
3499.7,-315.4901960784314,150.0,-160.49019607843138,-33.42,28.09,-54.24
3499.75,281.0,-263.5098039215686,298.01960784313724,11.3,12.69,2.66
3499.8,-195.0,297.0,-267.4901960784314,-0.1,-10.93,19.84
3499.85,-52.0,-225.0,-156.0,2.79,-9.11,9.73
3499.9,129.50980392156862,199.0,-264.0,-10.22,34.42,51.13
3499.95,-147.0,-263.5098039215686,-59.470588235294116,-47.32,75.76,91.52
3500.0,-147.0,-133.50980392156862,36.01960784313726,-102.34,88.71,133.8
3500.05,233.0,-78.0,236.01960784313727,-14.84,18.85,139.16
3500.1,233.0,248.0,-172.0,-82.53,14.26,87.18
3500.15,217.0,-182.50980392156862,-160.49019607843138,-127.05,54.16,-5.66
3500.2,-186.50980392156862,-133.50980392156862,155.52941176470588,61.35,1.59,-26.8
3500.25,-152.52941176470588,-182.50980392156862,5.019607843137255,76.64,-49.46,-6.64
3500.3,-308.54901960784315,292.01960784313724,-310.0,131.56,-92.9,8.47
3500.35,-34.01960784313726,90.50980392156863,239.50980392156862,121.27,-106.69,29.4
3500.4,99.49019607843137,-45.0,282.01960784313724,121.93,-87.89,-15.92
3500.45,-313.5098039215686,-263.5098039215686,21.019607843137255,72.2,-54.08,-29.01
3500.5,154.0,166.0,21.019607843137255,14.69,-39.73,-42.66
3500.55,-52.0,35.0,98.01960784313725,42.52,-37.18,-33.17
3500.6,272.5098039215686,84.0,-113.49019607843137,-4.58,-33.4,-55.54
3500.65,288.5098039215686,101.0,-313.4901960784314,-23.03,-39.0,-35.45
3500.7,-163.0,52.0,-236.49019607843138,-0.03,-39.21,-21.76
3500.75,-227.0,68.0,-206.49019607843138,9.41,-54.33,-20.89
3500.8,240.50980392156862,-78.0,70.50980392156863,-28.87,-36.62,-34.5
3500.85,240.50980392156862,19.0,221.01960784313727,2.72,-34.34,-25.09
3500.9,193.50980392156862,-45.0,-283.4901960784314,-35.17,-23.21,-19.03
3500.95,97.50980392156863,19.0,129.01960784313727,1.08,-16.0,-10.04
3501.0,2.5098039215686274,35.0,-83.49019607843137,-23.66,9.26,-1.6
3501.05,-156.49019607843138,-45.0,175.01960784313727,-29.22,8.56,-1.6
3501.1,2.5098039215686274,35.0,206.01960784313727,-18.58,21.19,-10.14
3501.15,-77.49019607843137,101.0,236.01960784313727,-10.43,24.87,-14.66
3501.2,-140.49019607843138,133.0,175.01960784313727,7.73,33.09,-3.32
3501.25,-77.49019607843137,3.0,-113.49019607843137,-31.43,54.37,-5.07
3501.3,-124.49019607843137,133.0,221.01960784313727,-2.03,46.88,-8.78
3501.35,-156.49019607843138,199.0,282.01960784313724,-28.52,53.15,2.8
3501.4,-204.49019607843138,150.0,-252.49019607843138,0.97,55.07,19.7
3501.45,-93.49019607843137,52.0,-160.49019607843138,-31.64,50.73,19.46
3501.5,-45.490196078431374,166.0,-298.4901960784314,-10.53,15.14,9.62
3501.55,2.5098039215686274,199.0,-113.49019607843137,6.33,-58.84,-96.1
3501.6,90.0,-78.0,-64.0,-53.41,3.8,14.24
3501.65,-275.0,-45.0,70.50980392156863,-15.68,21.26,44.13
3501.7,-52.0,-280.5098039215686,124.52941176470588,-30.62,32.78,64.19
3501.75,-36.0,-231.50980392156862,9.509803921568627,-96.14,67.36,128.9
3501.8,-227.0,101.0,206.01960784313727,-45.95,75.02,102.13
3501.85,-84.0,264.0,-21.49019607843137,-20.96,8.73,96.6
3501.9,-75.50980392156863,52.0,270.5098039215686,-73.04,14.51,71.05
3501.95,-27.50980392156863,-182.50980392156862,282.01960784313724,-85.29,-9.6,-2.9
3502.0,19.49019607843137,-149.50980392156862,-24.980392156862745,100.16,-81.94,-36.15
3502.05,187.98039215686273,-312.5098039215686,-236.49019607843138,105.17,-20.03,36.75
3502.1,-191.0392156862745,-219.49019607843138,6.019607843137255,86.72,-75.36,15.19
3502.15,274.4901960784314,-170.49019607843138,270.5098039215686,87.21,-82.92,18.62
3502.2,313.0,183.0,313.01960784313724,79.65,-54.19,15.89
3502.25,154.0,68.0,98.01960784313725,45.46,-15.34,-0.62
3502.3,138.0,-94.0,6.019607843137255,9.76,-11.14,-22.74
3502.35,27.0,3.0,252.01960784313727,-16.48,7.54,-24.07
3502.4,42.0,117.0,175.01960784313727,1.46,0.51,-29.43
3502.45,-20.0,35.0,-129.49019607843138,-32.93,-23.28,-45.0
3502.5,42.0,-209.0,-206.49019607843138,-24.67,-51.84,-56.83
3502.55,-4.0,19.0,-175.49019607843138,-6.65,-69.69,-42.48
3502.6,-195.0,84.0,24.50980392156863,-27.47,-75.29,-55.78
3502.65,272.5098039215686,199.0,-298.4901960784314,6.5,-59.47,-59.28
3502.7,65.50980392156863,199.0,221.01960784313727,-63.35,-31.19,-52.07
3502.75,2.5098039215686274,3.0,313.01960784313724,0.59,-33.19,-30.13
3502.8,2.5098039215686274,199.0,82.01960784313725,-13.4,1.98,-19.98
3502.85,-156.49019607843138,84.0,113.01960784313725,-8.26,12.9,-9.58
3502.9,-188.49019607843138,101.0,252.01960784313727,-6.09,23.82,-10.49
3502.95,-188.49019607843138,117.0,252.01960784313727,-33.0,40.86,-13.82
3503.0,-172.49019607843138,166.0,190.01960784313727,-32.02,46.32,-1.85
3503.05,-204.49019607843138,150.0,-160.49019607843138,-21.14,56.89,-6.75
3503.1,-108.49019607843137,215.0,313.01960784313724,-16.73,62.21,1.61
3503.15,-156.49019607843138,133.0,-206.49019607843138,-2.87,58.47,0.63
3503.2,-124.49019607843137,297.0,282.01960784313724,13.71,47.06,7.38
3503.25,-108.49019607843137,117.0,-236.49019607843138,-5.49,65.57,18.97
3503.3,-93.49019607843137,281.0,-83.49019607843137,-21.8,-10.12,-76.33
3503.35,249.0,-45.0,163.50980392156862,-21.0,-18.7,3.08
3503.4,288.5098039215686,95.49019607843137,55.509803921568626,-1.71,-15.93,12.18
3503.45,-100.0,117.0,-21.49019607843137,31.04,-7.15,37.2
3503.5,90.0,-198.50980392156862,-147.98039215686273,-57.29,59.34,60.34
3503.55,-243.0,-192.0,82.01960784313725,-108.08,78.8,92.22
3503.6,-227.0,-182.50980392156862,270.5098039215686,-63.77,49.93,100.76
3503.65,-11.509803921568627,286.5098039215686,-203.0,-49.56,8.59,110.88
3503.7,265.0,297.0,-221.49019607843138,-63.31,15.45,78.29
3503.75,-170.50980392156862,291.4901960784314,-132.98039215686273,-22.43,-4.28,-46.58
3503.8,131.49019607843138,-133.50980392156862,236.01960784313727,-22.12,-72.81,-103.73
3503.85,-270.03921568627453,96.01960784313725,104.0,83.64,-13.27,-9.37
3503.9,245.47058823529412,-209.0,32.529411764705884,139.33,-82.47,46.58
3503.95,-130.01960784313727,-160.0,70.50980392156863,72.06,-62.31,28.1
3504.0,-234.50980392156862,117.0,206.01960784313727,70.06,-48.31,13.61
3504.05,-218.50980392156862,166.0,221.01960784313727,47.07,-25.49,-12.59
3504.1,217.0,52.0,252.01960784313727,28.62,-27.1,-35.17
3504.15,122.0,133.0,-160.49019607843138,-9.94,-24.86,-56.17
3504.2,186.0,232.0,113.01960784313725,35.41,-34.76,-47.28
3504.25,-195.0,52.0,116.50980392156863,-6.68,-55.76,-53.23
3504.3,-243.0,68.0,-144.49019607843138,26.1,-72.74,-39.47
3504.35,-259.0,84.0,-252.49019607843138,-10.95,-51.42,-34.64
3504.4,145.50980392156862,68.0,298.01960784313724,11.16,-45.89,-26.91
3504.45,177.50980392156862,68.0,282.01960784313724,-29.4,-24.89,-19.07
3504.5,97.50980392156863,52.0,236.01960784313727,13.47,-22.86,-15.53
3504.55,81.50980392156863,52.0,-252.49019607843138,-40.81,-0.01,-17.6
3504.6,-61.490196078431374,19.0,129.01960784313727,-16.03,5.72,-1.22
3504.65,-172.49019607843138,117.0,190.01960784313727,-30.94,31.17,-0.94
3504.7,-172.49019607843138,68.0,159.01960784313727,-7.28,48.77,3.04
3504.75,-188.49019607843138,166.0,267.01960784313724,-17.85,54.97,-3.18
3504.8,-61.490196078431374,150.0,313.01960784313724,-4.41,49.09,-11.79
3504.85,-124.49019607843137,297.0,-267.4901960784314,-18.34,52.87,-15.15
3504.9,-77.49019607843137,166.0,313.01960784313724,1.57,40.27,-24.11
3504.95,-124.49019607843137,264.0,-221.49019607843138,-16.1,59.83,-8.22
3505.0,-267.4901960784314,166.0,-144.49019607843138,-12.25,63.12,12.56
3505.05,-93.49019607843137,183.0,-283.4901960784314,-17.11,12.3,-11.51
3505.1,161.50980392156862,281.0,-237.49019607843138,29.46,-7.81,-59.95
3505.15,-139.50980392156862,35.0,-172.0,-2.97,-5.43,21.66
3505.2,-163.0,-143.0,-129.49019607843138,7.87,-15.51,24.78
3505.25,-179.0,101.0,70.50980392156863,7.45,16.85,19.28
3505.3,-243.0,-192.0,-283.4901960784314,-60.72,69.0,80.08
3505.35,320.5098039215686,172.50980392156862,-221.49019607843138,-50.15,75.37,145.28
3505.4,186.0,177.49019607843138,101.50980392156863,-38.15,28.09,127.19
3505.45,-139.50980392156862,133.0,-52.490196078431374,-29.54,5.23,113.36
3505.5,90.0,133.0,-147.98039215686273,-101.15,-13.97,11.44
3505.55,-139.50980392156862,52.0,-101.98039215686275,-60.2,-19.29,-147.06
3505.6,-289.01960784313724,313.0,-252.49019607843138,82.77,-29.44,-9.69
3505.65,298.4313725490196,156.50980392156862,-129.49019607843138,43.85,-47.01,58.62
3505.7,-98.01960784313725,-268.4901960784314,163.50980392156862,82.91,-53.8,63.8
3505.75,313.0,-263.5098039215686,-101.98039215686275,118.05,-30.14,31.53
3505.8,-282.5098039215686,166.0,221.01960784313727,87.32,-12.08,12.11
3505.85,138.0,281.0,67.01960784313725,90.29,-18.52,-8.67
3505.9,122.0,-111.0,252.01960784313727,69.96,-27.17,-17.35
3505.95,-68.0,52.0,70.50980392156863,-29.54,-38.72,-43.22
3506.0,170.0,-94.0,178.50980392156862,9.41,-56.29,-36.32
3506.05,-84.0,150.0,-206.49019607843138,-10.08,-62.87,-30.09
3506.1,-179.0,-143.0,-113.49019607843137,-37.34,-79.63,-34.57
3506.15,320.5098039215686,68.0,9.509803921568627,-68.18,-76.27,-42.03
3506.2,193.50980392156862,-45.0,298.01960784313724,-44.38,-43.86,-40.28
3506.25,97.50980392156863,150.0,129.01960784313727,-53.34,-17.89,-23.93
3506.3,-13.490196078431373,-45.0,21.019607843137255,-18.44,-22.93,-27.33
3506.35,49.509803921568626,166.0,190.01960784313727,6.22,-3.47,-28.8
3506.4,-93.49019607843137,133.0,175.01960784313727,-8.61,24.27,-8.15
3506.45,-188.49019607843138,199.0,82.01960784313725,8.92,32.74,1.05
3506.5,-204.49019607843138,183.0,-298.4901960784314,-10.39,55.7,0.84
3506.55,-236.49019607843138,199.0,190.01960784313727,11.23,47.93,-8.25
3506.6,-156.49019607843138,183.0,-298.4901960784314,15.5,49.68,-23.06
3506.65,-204.49019607843138,264.0,-236.49019607843138,-6.51,56.93,-12.28
3506.7,-283.4901960784314,68.0,-298.4901960784314,-1.99,55.04,-8.22
3506.75,-124.49019607843137,52.0,-98.49019607843137,6.5,53.08,-8.64
3506.8,2.5098039215686274,150.0,267.01960784313724,-81.48,46.78,16.97
3506.85,-45.490196078431374,150.0,252.01960784313727,-66.6,-35.78,-56.27
3506.9,217.0,205.50980392156862,-33.0,28.31,-19.67,-13.19
3506.95,-68.0,46.490196078431374,-283.4901960784314,-40.53,-16.88,14.38
3507.0,42.0,205.50980392156862,-67.49019607843137,-36.61,-9.04,6.51
3507.05,-4.0,3.0,-313.4901960784314,-56.59,60.01,54.28
3507.1,240.50980392156862,183.0,-317.98039215686276,-44.45,81.01,95.62
3507.15,-227.0,-280.5098039215686,144.01960784313727,-16.38,30.64,98.84
3507.2,201.0,303.5098039215686,-295.0,-52.25,-6.41,121.41
3507.25,170.0,-296.5098039215686,-175.49019607843138,-137.83,36.42,69.72
3507.3,-282.5098039215686,177.49019607843138,-213.47058823529412,-110.84,-8.86,-31.84
3507.35,-202.50980392156862,-263.5098039215686,36.01960784313726,72.9,-90.45,-78.81
3507.4,-120.52941176470588,-225.0,-283.4901960784314,20.54,34.56,23.94
3507.45,229.47058823529412,58.509803921568626,263.52941176470586,78.36,-55.59,38.64
3507.5,-193.01960784313727,-23.49019607843137,12.0,-4.79,-63.64,11.27
3507.55,122.0,-67.50980392156863,206.01960784313727,63.94,-54.85,9.03
3507.6,170.0,-214.50980392156862,-298.4901960784314,-36.89,-22.41,-13.08
3507.65,249.0,215.0,282.01960784313724,-24.85,-41.97,-28.52
3507.7,201.0,264.0,-283.4901960784314,13.12,-26.15,-70.52
3507.75,-4.0,-280.5098039215686,-175.49019607843138,28.94,-33.78,-84.48
3507.8,-163.0,-296.5098039215686,270.5098039215686,27.5,-36.23,-95.58
3507.85,-84.0,-165.50980392156862,70.50980392156863,-8.15,-80.12,-69.54
3507.9,-275.0,183.0,-52.490196078431374,97.75,-80.82,-59.91
3507.95,81.50980392156863,281.0,147.50980392156862,-5.67,-23.32,-36.04
3508.0,18.50980392156863,-29.0,-283.4901960784314,25.61,-18.28,-21.24
3508.05,18.50980392156863,281.0,221.01960784313727,-17.95,-1.2,5.67
3508.1,2.5098039215686274,3.0,144.01960784313727,21.24,-7.22,5.0
3508.15,34.509803921568626,264.0,190.01960784313727,-5.7,14.16,-0.27
3508.2,-140.49019607843138,232.0,-298.4901960784314,3.95,10.48,-2.9
3508.25,-93.49019607843137,133.0,-298.4901960784314,-0.63,29.03,-0.66
3508.3,-220.49019607843138,133.0,-298.4901960784314,-19.18,46.18,-3.32
3508.35,-283.4901960784314,232.0,282.01960784313724,8.71,46.67,-1.36
3508.4,-252.49019607843138,232.0,-160.49019607843138,-4.83,62.6,-1.29
3508.45,-188.49019607843138,117.0,-313.4901960784314,1.18,61.44,-6.47
3508.5,-204.49019607843138,166.0,-236.49019607843138,0.03,57.07,-14.73
3508.55,-204.49019607843138,133.0,-83.49019607843137,10.81,30.71,-28.87
3508.6,-156.49019607843138,117.0,-83.49019607843137,-86.41,72.96,12.81
3508.65,-236.49019607843138,-45.0,-98.49019607843137,-20.05,25.64,-8.01
3508.7,-298.5098039215686,-2.5098039215686274,159.01960784313727,-12.0,-3.37,31.85
3508.75,-36.0,-18.50980392156863,147.50980392156862,11.65,-26.99,29.89
3508.8,-52.0,-29.0,-313.4901960784314,31.35,-15.93,12.39
3508.85,129.50980392156862,-176.0,-193.98039215686273,24.98,6.21,10.53
3508.9,-147.0,-29.0,221.01960784313727,-56.63,80.94,102.34
3508.95,-36.0,-67.50980392156863,113.01960784313725,-70.91,92.0,150.92
3509.0,-52.0,84.0,86.50980392156863,-66.15,30.01,150.88
3509.05,-202.50980392156862,-176.0,-6.490196078431373,-97.05,40.06,83.12
3509.1,186.0,166.0,144.01960784313727,-109.86,35.58,-17.98
3509.15,-234.50980392156862,-263.5098039215686,144.01960784313727,17.04,-106.23,-111.33
3509.2,308.47058823529414,156.50980392156862,-80.0,-31.25,6.6,5.39
3509.25,118.47058823529412,-138.49019607843138,-40.98039215686274,38.21,-88.21,20.3
3509.3,-193.01960784313727,90.50980392156863,-156.0,13.22,-88.84,-5.21
3509.35,217.0,-51.509803921568626,144.01960784313727,22.43,-57.23,-18.33
3509.4,249.0,-67.50980392156863,159.01960784313727,44.51,-33.08,-41.26
3509.45,201.0,-231.50980392156862,221.01960784313727,-37.1,-30.07,-77.97
3509.5,58.0,150.0,-252.49019607843138,82.49,-73.16,-90.36
3509.55,-68.0,-67.50980392156863,-221.49019607843138,-163.97,8.1,52.39
3509.6,-181.98039215686273,-268.4901960784314,-124.96078431372548,122.74,-104.03,-2.41
3509.65,313.0,-133.50980392156862,-206.49019607843138,33.8,-72.98,-41.36
3509.7,-45.490196078431374,-280.5098039215686,-206.49019607843138,76.33,-65.28,-30.09
3509.75,81.50980392156863,281.0,-175.49019607843138,-14.14,-29.86,-23.76
3509.8,2.5098039215686274,84.0,-221.49019607843138,19.87,-34.9,-15.6
3509.85,-188.49019607843138,264.0,-283.4901960784314,-71.36,-45.15,11.72
3509.9,-172.49019607843138,35.0,24.50980392156863,33.59,-16.35,19.7
3509.95,224.50980392156862,199.0,36.01960784313726,-19.7,7.16,-9.23
3510.0,-156.49019607843138,52.0,313.01960784313724,33.35,17.17,-3.91
3510.05,-140.49019607843138,35.0,-313.4901960784314,10.53,57.35,5.0
3510.1,-267.4901960784314,150.0,175.01960784313727,14.34,64.14,0.94
3510.15,-188.49019607843138,-280.5098039215686,-283.4901960784314,-20.37,67.71,0.03
3510.2,-204.49019607843138,133.0,-83.49019607843137,6.61,55.39,-6.12
3510.25,-140.49019607843138,313.0,-144.49019607843138,-36.33,55.67,-8.57
3510.3,-236.49019607843138,101.0,-67.49019607843137,-10.92,48.81,-3.42
3510.35,-315.4901960784314,183.0,-52.490196078431374,-33.46,56.82,9.59
3510.4,216.01960784313727,-78.0,-21.49019607843137,-8.01,38.8,-0.76
3510.45,-131.0,-296.5098039215686,-37.490196078431374,31.18,13.11,1.36
3510.5,-234.50980392156862,150.0,-36.490196078431374,-12.04,-4.45,10.95
3510.55,106.0,-225.0,-18.0,-8.29,-7.71,26.18
3510.6,27.0,19.0,286.5098039215686,-112.73,35.09,45.57
3510.65,-243.0,-209.0,236.01960784313727,-49.1,51.36,111.26
3510.7,-20.0,79.49019607843137,-221.49019607843138,-27.65,51.99,131.84
3510.75,-84.0,-165.50980392156862,-117.98039215686275,-26.53,11.36,128.17
3510.8,106.0,150.0,144.01960784313727,-25.3,-1.55,85.75
3510.85,-202.50980392156862,-67.50980392156863,-313.4901960784314,-44.8,15.67,10.04
3510.9,-202.50980392156862,-165.50980392156862,298.01960784313724,-32.86,-87.79,-85.53
3510.95,213.47058823529412,188.50980392156862,24.50980392156863,7.2,-47.92,-9.06
3511.0,6.470588235294118,107.50980392156863,-313.4901960784314,96.21,-89.4,20.4
3511.05,-34.01960784313726,254.50980392156862,86.50980392156863,109.02,-96.08,1.22
3511.1,-186.50980392156862,-198.50980392156862,221.01960784313727,122.39,-87.86,-32.58
3511.15,-266.5098039215686,-67.50980392156863,21.019607843137255,50.6,-41.8,-44.51
3511.2,106.0,-127.0,129.01960784313727,28.59,-18.24,-46.37
3511.25,-243.0,19.0,206.01960784313727,37.48,-38.19,-56.13
3511.3,-84.0,199.0,313.01960784313724,30.76,-40.22,-44.41
3511.35,-211.0,19.0,70.50980392156863,-21.77,-42.43,-32.68
3511.4,-275.0,52.0,-206.49019607843138,0.94,-55.9,-29.99
3511.45,-290.0,35.0,-144.49019607843138,-12.04,-56.6,-23.06
3511.5,288.5098039215686,35.0,-129.49019607843138,-11.16,-44.88,-26.63
3511.55,193.50980392156862,19.0,-298.4901960784314,-28.31,-31.89,-19.03
3511.6,177.50980392156862,35.0,282.01960784313724,-11.06,-21.01,-18.61
3511.65,81.50980392156863,19.0,159.01960784313727,-26.42,0.4,-11.47
3511.7,18.50980392156863,68.0,252.01960784313727,-21.21,9.26,-15.18
3511.75,-29.49019607843137,150.0,221.01960784313727,-21.24,5.72,-7.17
3511.8,-108.49019607843137,52.0,221.01960784313727,2.69,8.28,-6.78
3511.85,-220.49019607843138,215.0,298.01960784313724,-2.03,28.51,5.49
3511.9,-188.49019607843138,166.0,159.01960784313727,49.03,28.02,10.01
3511.95,-124.49019607843137,117.0,282.01960784313724,24.49,53.39,6.75
3512.0,-172.49019607843138,133.0,313.01960784313724,3.21,68.9,-8.67
3512.05,-156.49019607843138,166.0,282.01960784313724,14.03,58.68,-16.48
3512.1,-220.49019607843138,-13.0,-129.49019607843138,-42.7,64.35,-19.59
3512.15,-188.49019607843138,52.0,-206.49019607843138,-16.62,41.7,-23.65
3512.2,-188.49019607843138,166.0,-21.49019607843137,-86.59,73.13,62.23
3512.25,-220.49019607843138,19.0,-52.490196078431374,-54.95,-11.8,-36.95
3512.3,106.0,150.0,-249.0,-16.87,-34.24,-43.85
3512.35,-84.0,-149.50980392156862,39.509803921568626,0.97,-9.53,2.2
3512.4,106.0,-176.0,159.01960784313727,10.32,7.54,28.59
3512.45,-163.0,84.0,178.50980392156862,-23.48,33.3,48.61
3512.5,240.50980392156862,35.0,-83.49019607843137,-69.19,55.81,107.73
3512.55,-195.0,133.0,-313.4901960784314,-63.38,48.32,95.76
3512.6,201.0,264.0,209.50980392156862,-11.02,-12.29,129.57
3512.65,-218.50980392156862,-312.5098039215686,39.509803921568626,-54.53,-4.66,102.3
3512.7,313.0,-280.5098039215686,52.01960784313726,-114.31,-14.64,23.69
3512.75,-234.50980392156862,313.0,144.01960784313727,42.97,37.05,-104.36
3512.8,-11.509803921568627,46.490196078431374,-67.49019607843137,74.4,17.0,-33.28
3512.85,320.94117647058823,107.50980392156863,-190.49019607843138,37.97,-7.85,25.13
3512.9,-66.01960784313725,-138.49019607843138,55.509803921568626,45.56,-82.26,2.9
3512.95,67.49019607843137,313.0,-221.49019607843138,16.62,-98.29,-4.12
3513.0,-139.50980392156862,84.0,24.50980392156863,12.52,-84.57,-38.84
3513.05,74.0,-35.509803921568626,5.019607843137255,8.11,-50.83,-63.87
3513.1,-20.0,-116.50980392156863,236.01960784313727,56.76,-37.63,-77.76
3513.15,320.5098039215686,281.0,-37.490196078431374,-2.52,-28.36,-81.05
3513.2,-195.0,264.0,-98.49019607843137,49.62,-48.2,-38.14
3513.25,288.5098039215686,-263.5098039215686,-206.49019607843138,15.11,-25.35,-20.29
3513.3,208.50980392156862,150.0,-283.4901960784314,6.33,-33.54,-20.05
3513.35,256.5098039215686,68.0,-67.49019607843137,14.2,-43.16,-20.5
3513.4,272.5098039215686,3.0,-175.49019607843138,24.42,-49.08,-18.58
3513.45,208.50980392156862,183.0,-298.4901960784314,12.07,-34.8,-11.89
3513.5,18.50980392156863,232.0,267.01960784313724,7.55,-26.33,-6.68
3513.55,-29.49019607843137,166.0,-267.4901960784314,-12.6,-2.74,-0.97
3513.6,-93.49019607843137,166.0,267.01960784313724,-9.83,2.78,3.08
3513.65,-108.49019607843137,183.0,206.01960784313727,12.87,12.48,5.21
3513.7,-108.49019607843137,101.0,298.01960784313724,-0.73,32.85,-3.49
3513.75,-156.49019607843138,166.0,267.01960784313724,-1.47,38.83,-5.0
3513.8,-140.49019607843138,133.0,252.01960784313727,38.04,35.79,3.36
3513.85,-172.49019607843138,150.0,-298.4901960784314,34.71,51.08,2.24
3513.9,-204.49019607843138,215.0,313.01960784313724,7.69,70.65,-2.2
3513.95,-267.4901960784314,199.0,-313.4901960784314,2.37,69.28,-0.59
3514.0,-124.49019607843137,101.0,-236.49019607843138,-5.84,60.22,1.92
3514.05,-140.49019607843138,117.0,-144.49019607843138,-43.05,62.6,7.03
3514.1,-108.49019607843137,68.0,-236.49019607843138,-30.55,7.09,-40.03
3514.15,208.50980392156862,-45.0,193.50980392156862,-12.77,-23.81,-67.02
3514.2,281.0,-209.0,-203.0,-52.5,-10.4,14.38
3514.25,-20.0,248.0,-83.49019607843137,-31.08,15.73,21.56
3514.3,90.0,281.0,162.50980392156862,12.98,32.78,57.78
3514.35,74.0,35.0,155.52941176470588,13.22,31.97,79.45
3514.4,-116.0,101.0,278.52941176470586,-63.35,56.26,115.04
3514.45,-275.0,84.0,-295.0,-90.05,58.71,131.63
3514.5,-4.0,-94.0,-67.49019607843137,-69.47,-13.76,127.75
3514.55,-218.50980392156862,52.0,-236.49019607843138,-52.46,6.49,60.9
3514.6,-186.50980392156862,-35.509803921568626,-255.98039215686273,-110.28,37.51,-35.06
3514.65,313.0,232.0,267.01960784313724,72.02,-97.03,-101.56
3514.7,-318.03921568627453,123.50980392156863,301.5098039215686,-18.65,44.5,-20.33
3514.75,181.47058823529412,-7.490196078431373,-44.470588235294116,42.73,-59.26,19.98
3514.8,-209.01960784313727,90.50980392156863,-218.0,4.02,-46.21,3.15
3514.85,201.0,-182.50980392156862,36.01960784313726,44.86,-49.32,-13.89
3514.9,-298.5098039215686,-214.50980392156862,144.01960784313727,39.23,-31.33,-39.51
3514.95,154.0,-247.50980392156862,144.01960784313727,-57.78,-21.15,-63.31
3515.0,-20.0,166.0,-267.4901960784314,15.32,-75.54,-80.53
3515.05,-52.0,-133.50980392156862,-175.49019607843138,128.48,69.98,-203.1
3515.1,152.01960784313727,129.01960784313727,-54.94117647058823,17.98,-99.09,-121.58
3515.15,-114.01960784313725,-35.509803921568626,-267.4901960784314,-3.22,-56.57,-73.53
3515.2,-172.49019607843138,183.0,55.509803921568626,69.92,-65.74,-53.44
3515.25,-147.0,-280.5098039215686,-206.49019607843138,12.59,-39.1,-37.93
3515.3,97.50980392156863,150.0,282.01960784313724,15.22,-37.18,-16.86
3515.35,2.5098039215686274,264.0,-252.49019607843138,0.9,-32.7,-3.77
3515.4,-77.49019607843137,52.0,-252.49019607843138,15.08,-24.4,15.29
3515.45,-204.49019607843138,248.0,298.01960784313724,9.2,-0.01,5.67
3515.5,-188.49019607843138,183.0,221.01960784313727,4.33,4.78,2.9
3515.55,-204.49019607843138,84.0,-313.4901960784314,-6.96,38.52,-2.06
3515.6,-299.4901960784314,101.0,-313.4901960784314,-23.8,50.21,5.04
3515.65,-267.4901960784314,215.0,282.01960784313724,-8.05,61.97,8.99
3515.7,-188.49019607843138,133.0,-283.4901960784314,-7.77,76.35,2.69
3515.75,-108.49019607843137,166.0,236.01960784313727,1.6,71.73,5.49
3515.8,-172.49019607843138,215.0,-236.49019607843138,-50.36,68.69,-7.41
3515.85,-220.49019607843138,150.0,-160.49019607843138,-47.53,40.34,-15.25
3515.9,-283.4901960784314,19.0,209.50980392156862,-28.8,53.67,-17.32
3515.95,2.5098039215686274,313.0,-279.0,-21.24,17.06,-9.62
3516.0,-266.5098039215686,-247.50980392156862,252.01960784313727,-6.89,12.55,12.81
3516.05,-195.0,248.0,101.50980392156863,-6.09,1.7,32.48
3516.1,-68.0,183.0,86.50980392156863,-15.12,-4.56,-4.19
3516.15,-116.0,3.0,313.01960784313724,-30.13,7.33,10.71
3516.2,-68.0,-160.0,162.50980392156862,-63.35,69.18,114.62
3516.25,-147.0,-100.50980392156863,175.01960784313727,-28.17,77.68,153.02
3516.3,-313.5098039215686,-263.5098039215686,-147.98039215686273,-27.16,23.29,143.88
3516.35,265.0,183.0,-190.49019607843138,-105.63,-1.44,69.05
3516.4,186.0,313.0,-298.4901960784314,-81.76,-26.4,-37.76
3516.45,-11.509803921568627,-263.5098039215686,190.01960784313727,77.06,13.81,-84.8
3516.5,92.98039215686275,199.0,-190.49019607843138,-55.54,23.26,13.58
3516.55,79.96078431372548,178.01960784313727,-240.98039215686273,96.28,-78.13,26.49
3516.6,-146.01960784313727,-236.49019607843138,135.0,12.98,-82.15,-0.94
3516.65,-218.50980392156862,13.490196078431373,36.01960784313726,72.02,-54.71,-13.29
3516.7,106.0,30.49019607843137,-147.98039215686273,8.71,-26.05,-40.56
3516.75,11.0,183.0,236.01960784313727,-18.3,-48.8,-85.5
3516.8,42.0,19.0,24.50980392156863,21.94,-104.55,-106.04
3516.85,-259.0,-149.50980392156862,313.01960784313724,19.56,-63.46,-115.84
3516.9,113.50980392156863,133.0,132.50980392156862,3.35,-37.53,-86.51
3516.95,65.50980392156863,297.0,-267.4901960784314,27.78,-44.77,-35.17
3517.0,97.50980392156863,281.0,236.01960784313727,27.68,-27.13,12.56
3517.05,208.50980392156862,248.0,313.01960784313724,41.4,-28.46,12.81
3517.1,97.50980392156863,150.0,-175.49019607843138,5.21,-9.91,7.28
3517.15,49.509803921568626,-62.0,-298.4901960784314,24.18,-9.39,6.89
3517.2,113.50980392156863,-13.0,-190.49019607843138,-11.44,-0.6,5.63
3517.25,-29.49019607843137,3.0,252.01960784313727,39.65,4.11,14.31
3517.3,-220.49019607843138,52.0,236.01960784313727,3.81,14.86,8.82
3517.35,-124.49019607843137,117.0,282.01960784313724,-11.97,32.11,0.73
3517.4,-188.49019607843138,84.0,-283.4901960784314,-10.15,43.91,-1.08
3517.45,-220.49019607843138,150.0,313.01960784313724,-1.43,55.46,6.23
3517.5,-172.49019607843138,183.0,282.01960784313724,-22.33,67.08,-0.55
3517.55,-172.49019607843138,248.0,252.01960784313727,11.09,58.33,-8.11
3517.6,-108.49019607843137,3.0,-237.49019607843138,-8.19,56.68,-23.97
3517.65,-45.490196078431374,84.0,-313.4901960784314,24.32,31.1,-53.58
3517.7,-93.49019607843137,150.0,-206.49019607843138,-21.87,50.1,-40.28
3517.75,-252.49019607843138,84.0,-236.49019607843138,-100.8,87.66,21.91
3517.8,-77.49019607843137,84.0,-83.49019607843137,-17.32,5.16,-32.26
3517.85,-75.50980392156863,-263.5098039215686,-160.49019607843138,-30.83,-11.03,16.45
3517.9,-100.0,150.0,89.0,-17.25,-24.19,12.6
3517.95,154.0,-45.0,-52.490196078431374,27.75,-9.88,16.1
3518.0,-68.0,101.0,113.01960784313725,8.29,46.25,63.94
3518.05,-290.0,-78.0,-117.98039215686275,-73.53,75.44,104.3
3518.1,-179.0,35.0,-252.49019607843138,-50.71,71.77,128.73
3518.15,-52.0,-84.50980392156863,55.509803921568626,-48.61,19.48,148.19
3518.2,4.490196078431373,-160.0,-175.49019607843138,-78.85,21.65,94.78
3518.25,249.0,-182.50980392156862,313.01960784313724,-44.69,0.19,-4.75
3518.3,-186.50980392156862,-263.5098039215686,190.01960784313727,61.17,-36.44,-96.87
3518.35,-225.01960784313727,166.0,-252.49019607843138,63.83,-33.05,1.57
3518.4,41.450980392156865,178.01960784313727,-52.490196078431374,6.26,-85.13,6.51
3518.45,-130.01960784313727,188.50980392156862,101.50980392156863,78.78,-75.36,-13.61
3518.5,-123.50980392156863,-100.50980392156863,98.01960784313725,8.71,-30.42,-26.1
3518.55,122.0,-312.5098039215686,5.019607843137255,5.35,-18.31,-46.65
3518.6,-163.0,-263.5098039215686,175.01960784313727,-57.75,-42.88,-61.35
3518.65,-147.0,-263.5098039215686,313.01960784313724,21.8,-35.85,-57.85
3518.7,-195.0,-111.0,316.5098039215686,-5.49,-50.37,-96.24
3518.75,-211.0,-247.50980392156862,-144.49019607843138,58.55,-78.41,-91.52
3518.8,208.50980392156862,-296.5098039215686,24.50980392156863,25.68,-60.94,-58.76
3518.85,-13.490196078431373,52.0,-267.4901960784314,51.34,-43.23,-17.07
3518.9,65.50980392156863,117.0,-98.49019607843137,10.88,-14.04,14.45
3518.95,113.50980392156863,35.0,298.01960784313724,31.6,-10.51,13.93
3519.0,193.50980392156862,84.0,282.01960784313724,2.16,-7.88,7.94
3519.05,145.50980392156862,-13.0,252.01960784313727,-5.67,-5.54,8.61
3519.1,113.50980392156863,84.0,298.01960784313724,-51.52,2.82,10.39
3519.15,-45.490196078431374,52.0,252.01960784313727,2.2,0.44,19.04
3519.2,34.509803921568626,199.0,98.01960784313725,-42.28,25.6,2.17
3519.25,-93.49019607843137,19.0,-283.4901960784314,-52.74,38.31,0.35
3519.3,-61.490196078431374,199.0,-313.4901960784314,-46.02,55.81,4.55
3519.35,-93.49019607843137,101.0,282.01960784313724,10.07,49.82,2.73
3519.4,-93.49019607843137,297.0,-283.4901960784314,11.37,62.81,2.17
3519.45,-172.49019607843138,-280.5098039215686,-175.49019607843138,32.33,57.14,-12.0
3519.5,-93.49019607843137,297.0,-267.4901960784314,38.46,46.29,-8.53
3519.55,-188.49019607843138,183.0,-144.49019607843138,20.96,46.15,-16.48
3519.6,-172.49019607843138,281.0,-175.49019607843138,7.27,43.0,-18.89
3519.65,-172.49019607843138,133.0,-221.49019607843138,-63.77,55.63,13.51
3519.7,65.50980392156863,183.0,-283.4901960784314,8.64,-15.16,-55.15
3519.75,-250.50980392156862,-182.50980392156862,55.509803921568626,4.19,-6.69,28.87
3519.8,-179.0,-182.50980392156862,267.01960784313724,3.21,-7.78,25.65
3519.85,74.0,-94.0,162.50980392156862,-4.41,-6.24,22.08
3519.9,-243.0,-143.0,24.50980392156863,-73.11,37.64,60.48
3519.95,-211.0,-225.0,144.01960784313727,-54.04,63.68,107.8
3520.0,-163.0,-165.50980392156862,190.01960784313727,-31.43,74.71,118.12
3520.05,27.0,-263.5098039215686,-252.49019607843138,-19.32,16.92,111.3
3520.1,-186.50980392156862,-312.5098039215686,-252.49019607843138,-37.41,-7.08,73.85
3520.15,-234.50980392156862,-231.50980392156862,-240.98039215686273,-87.25,-25.17,-5.94
3520.2,-298.5098039215686,215.0,236.01960784313727,36.78,-38.68,-93.34
3520.25,258.4901960784314,313.0,209.50980392156862,95.47,11.46,23.38
3520.3,-22.54901960784314,237.50980392156862,82.01960784313725,84.8,-85.55,24.78
3520.35,-257.01960784313724,-285.4901960784314,-33.0,109.89,-112.29,5.21
3520.4,-186.50980392156862,-296.5098039215686,313.01960784313724,151.12,-95.8,1.78
3520.45,138.0,166.0,82.01960784313725,96.49,-8.27,-7.45
3520.5,-195.0,248.0,-224.98039215686273,-10.32,25.5,-5.91
3520.55,-195.0,-127.0,5.019607843137255,47.84,-19.68,-37.86
3520.6,-20.0,166.0,-67.49019607843137,2.62,-17.16,-29.53
3520.65,-195.0,-143.0,101.50980392156863,-30.55,-30.25,-21.97
3520.7,-20.0,-176.0,-190.49019607843138,10.56,-66.58,-27.78
3520.75,-68.0,-94.0,-98.49019607843137,-25.02,-72.63,-33.94
3520.8,-227.0,-127.0,101.50980392156863,-53.3,-79.63,-36.08
3520.85,-243.0,19.0,-160.49019607843138,-45.01,-61.96,-47.1
3520.9,224.50980392156862,52.0,267.01960784313724,-141.96,-35.92,-45.95
3520.95,193.50980392156862,-29.0,236.01960784313727,-74.83,-45.26,-40.84
3521.0,49.509803921568626,215.0,313.01960784313724,-39.48,-39.66,-28.31
3521.05,-156.49019607843138,183.0,267.01960784313724,44.83,-21.15,6.96
3521.1,-197.98039215686273,232.0,205.01960784313727,-0.7,16.75,-1.67
3521.15,184.01960784313727,199.0,221.01960784313727,9.2,30.26,-4.23
3521.2,-108.49019607843137,-263.5098039215686,313.01960784313724,18.23,37.75,-1.99
3521.25,-140.49019607843138,281.0,-313.4901960784314,14.06,50.91,2.13
3521.3,-188.49019607843138,264.0,-283.4901960784314,29.29,61.76,-0.8
3521.35,-236.49019607843138,248.0,252.01960784313727,6.68,71.8,-14.97
3521.4,-220.49019607843138,117.0,-313.4901960784314,-15.15,74.67,-25.23
3521.45,-188.49019607843138,183.0,-267.4901960784314,18.79,56.4,-14.24
3521.5,-188.49019607843138,35.0,-36.490196078431374,-73.78,77.68,22.5
3521.55,-156.49019607843138,68.0,-98.49019607843137,1.18,-21.36,-31.21
3521.6,-116.0,-198.50980392156862,-280.0,-10.53,-18.59,-28.8
3521.65,-68.0,-133.50980392156862,301.5098039215686,-26.95,-7.25,26.21
3521.7,11.0,-274.0,-6.490196078431373,-29.01,15.14,28.31
3521.75,58.0,-56.490196078431374,-86.98039215686275,-47.98,52.9,41.05
3521.8,-195.0,-45.0,-283.4901960784314,-89.28,51.5,74.06
3521.85,-195.0,183.0,-21.49019607843137,-39.86,39.15,120.08
3521.9,106.0,209.49019607843138,70.50980392156863,-10.25,6.49,109.72
3521.95,-170.50980392156862,-247.50980392156862,236.01960784313727,-26.88,-17.72,92.96
3522.0,-218.50980392156862,183.0,-286.98039215686276,-60.34,-57.16,16.73
3522.05,138.0,-18.50980392156863,6.019607843137255,-129.32,-69.17,-118.08
3522.1,90.0,199.0,101.50980392156863,-25.34,-127.93,-120.36
3522.15,120.45098039215686,-138.49019607843138,-129.49019607843138,15.22,33.06,48.4
3522.2,-177.01960784313727,-94.0,186.52941176470588,114.86,-21.01,49.31
3522.25,131.49019607843138,232.0,206.01960784313727,17.39,-3.68,23.76
3522.3,249.0,84.0,298.01960784313724,53.89,-19.75,11.16
3522.35,297.0,62.490196078431374,36.01960784313726,10.49,-11.87,-14.8
3522.4,170.0,-198.50980392156862,252.01960784313727,9.3,-16.81,-63.03
3522.45,-36.0,133.0,132.50980392156862,-28.84,-41.76,-87.25
3522.5,-84.0,-182.50980392156862,252.01960784313727,91.34,-66.19,-90.4
3522.55,224.50980392156862,-263.5098039215686,86.50980392156863,41.5,-57.44,-79.09
3522.6,145.50980392156862,264.0,-67.49019607843137,63.03,-83.24,-50.32
3522.65,193.50980392156862,232.0,-313.4901960784314,62.01,-60.31,-10.95
3522.7,-13.490196078431373,281.0,267.01960784313724,5.63,-40.05,-7.2
3522.75,18.50980392156863,35.0,-267.4901960784314,-81.37,49.16,32.86
3522.8,-252.49019607843138,-111.0,-224.98039215686273,167.01,-35.67,0.56
3522.85,208.50980392156862,-67.50980392156863,-313.4901960784314,-53.72,-3.96,-34.43
3522.9,65.50980392156863,-192.0,9.509803921568627,1.53,-1.27,-4.89
3522.95,-220.49019607843138,264.0,282.01960784313724,-1.99,26.72,-1.78
3523.0,-140.49019607843138,52.0,175.01960784313727,10.98,42.51,-1.25
3523.05,-108.49019607843137,199.0,267.01960784313724,29.95,53.46,-2.09
3523.1,-172.49019607843138,150.0,175.01960784313727,3.21,65.71,-11.26
3523.15,-124.49019607843137,101.0,-283.4901960784314,-10.29,74.85,-16.55
3523.2,-188.49019607843138,117.0,-129.49019607843138,-41.23,69.49,-14.87
3523.25,-236.49019607843138,133.0,-221.49019607843138,1.25,52.59,-6.33
3523.3,-124.49019607843137,150.0,-98.49019607843137,-32.83,55.84,1.4
3523.35,-140.49019607843138,52.0,-236.49019607843138,-36.22,41.67,20.54
3523.4,18.50980392156863,35.0,-144.49019607843138,-36.01,-12.99,-64.64
3523.45,233.0,215.0,39.509803921568626,-69.79,-8.3,8.01
3523.5,256.5098039215686,-35.509803921568626,-298.4901960784314,-35.35,-6.38,16.87
3523.55,106.0,183.0,21.019607843137255,2.34,2.29,17.5
3523.6,-163.0,-296.5098039215686,94.52941176470588,18.4,36.03,52.53
3523.65,-259.0,19.0,-237.49019607843138,-45.99,40.37,104.54
3523.7,-131.0,68.0,-36.490196078431374,8.53,22.17,132.51
3523.75,217.0,-100.50980392156863,-160.49019607843138,-24.78,-6.76,131.25
3523.8,138.0,-312.5098039215686,224.50980392156862,-81.55,-16.63,80.74
3523.85,58.0,215.0,-313.4901960784314,-85.82,-52.75,-32.05
3523.9,297.0,-296.5098039215686,113.01960784313725,-16.52,-43.2,-138.24
3523.95,-273.01960784313724,-225.0,-236.49019607843138,67.86,8.38,9.62
3524.0,57.450980392156865,183.0,144.01960784313727,30.02,-33.26,28.63
3524.05,-225.01960784313727,-138.49019607843138,239.50980392156862,55.19,-53.8,-1.5
3524.1,-298.5098039215686,-133.50980392156862,52.01960784313726,25.89,-37.95,-14.06
3524.15,201.0,313.0,-101.98039215686275,17.39,-0.36,-29.18
3524.2,11.0,166.0,190.01960784313727,6.85,-46.28,-67.37
3524.25,42.0,-67.50980392156863,-283.4901960784314,62.19,-29.97,-97.92
3524.3,-306.0,52.0,-280.0,9.06,-57.69,-94.95
3524.35,320.5098039215686,150.0,224.50980392156862,98.03,-101.16,-76.47
3524.4,145.50980392156862,-84.50980392156863,-144.49019607843138,19.03,-68.61,-46.61
3524.45,-77.49019607843137,84.0,-237.49019607843138,22.99,-47.4,-17.32
3524.5,-140.49019607843138,166.0,-98.49019607843137,-31.25,-36.51,10.15
3524.55,-93.49019607843137,-45.0,-313.4901960784314,47.77,-24.75,14.38
3524.6,65.50980392156863,-62.0,82.01960784313725,-30.97,-13.66,8.75
3524.65,-77.49019607843137,-13.0,221.01960784313727,-29.47,-11.07,17.01
3524.7,-77.49019607843137,133.0,-175.49019607843138,-11.79,24.27,11.16
3524.75,-188.49019607843138,215.0,175.01960784313727,-32.06,34.67,-4.4
3524.8,-61.490196078431374,215.0,282.01960784313724,33.38,36.94,-5.17
3524.85,-61.490196078431374,199.0,298.01960784313724,29.15,64.07,-3.56
3524.9,-172.49019607843138,133.0,144.01960784313727,18.02,63.4,-5.0
3524.95,-172.49019607843138,52.0,-298.4901960784314,8.53,76.35,-5.42
3525.0,-172.49019607843138,68.0,-67.49019607843137,-21.07,59.17,-13.36
3525.05,-108.49019607843137,150.0,-160.49019607843138,-3.57,39.53,-24.04
3525.1,-77.49019607843137,117.0,9.509803921568627,-36.75,35.51,-20.61
3525.15,-188.49019607843138,101.0,-206.49019607843138,34.08,2.68,-27.29
3525.2,18.50980392156863,150.0,-175.49019607843138,-67.27,41.91,-30.69
3525.25,-13.490196078431373,232.0,55.509803921568626,-37.8,-0.57,-22.95
3525.3,297.0,166.0,-129.49019607843138,-25.79,30.71,36.36
3525.35,-52.0,264.0,67.01960784313725,-16.87,13.74,29.85
3525.4,-68.0,117.0,-6.490196078431373,-34.02,22.84,36.89
3525.45,-243.0,52.0,21.019607843137255,-48.96,30.36,41.93
3525.5,-116.0,101.0,-310.0,-56.35,69.95,100.55
3525.55,-52.0,-231.50980392156862,-160.49019607843138,-30.69,68.27,120.08
3525.6,-116.0,-13.0,-9.980392156862745,-34.75,16.64,119.52
3525.65,90.0,-111.0,70.50980392156863,-82.07,-2.49,83.23
3525.7,233.0,-2.5098039215686274,159.01960784313727,-79.83,-18.24,-4.86
3525.75,-59.509803921568626,297.0,252.01960784313727,67.3,-17.19,-72.55
3525.8,70.47058823529412,123.50980392156863,-24.980392156862745,99.04,-38.4,4.76
3525.85,-254.0392156862745,139.50980392156862,98.01960784313725,85.01,-34.73,-22.74
3525.9,28.980392156862745,188.50980392156862,-175.49019607843138,132.64,-93.0,-54.7
3525.95,297.0,-67.50980392156863,-252.49019607843138,41.71,-62.73,-49.87
3526.0,-100.0,-84.50980392156863,144.01960784313727,86.69,-80.47,-58.48
3526.05,-147.0,-296.5098039215686,221.01960784313727,-32.48,-50.13,-60.16
3526.1,304.5098039215686,19.0,252.01960784313727,93.62,-85.83,-58.34
3526.15,-306.0,-312.5098039215686,-313.4901960784314,11.16,-25.77,6.26
3526.2,-124.49019607843137,-274.0,-237.49019607843138,-44.31,-42.15,14.66
3526.25,-259.0,-111.0,190.01960784313727,63.48,-49.67,14.49
3526.3,240.50980392156862,-214.50980392156862,55.509803921568626,59.07,-50.06,-1.78
3526.35,97.50980392156863,-29.0,39.509803921568626,30.79,-39.73,-20.43
3526.4,240.50980392156862,-78.0,-283.4901960784314,-15.75,-11.21,-10.77
3526.45,145.50980392156862,-241.0,267.01960784313724,-29.82,-7.64,-14.9
3526.5,81.50980392156863,-78.0,175.01960784313727,-109.16,12.02,52.04
3526.55,216.01960784313727,-29.0,-206.49019607843138,20.05,23.08,3.39
3526.6,-306.0,-263.5098039215686,21.019607843137255,-34.33,14.3,-10.11
3526.65,-61.490196078431374,-13.0,282.01960784313724,28.41,13.32,-6.57
3526.7,-13.490196078431373,3.0,-283.4901960784314,-6.75,41.07,-3.11
3526.75,-45.490196078431374,19.0,236.01960784313727,-11.62,47.86,-7.83
3526.8,-77.49019607843137,52.0,206.01960784313727,-37.41,66.2,-15.08
3526.85,-140.49019607843138,3.0,-267.4901960784314,-44.27,64.73,-24.21
3526.9,-45.490196078431374,166.0,206.01960784313727,-12.35,55.56,-11.16
3526.95,-188.49019607843138,117.0,9.509803921568627,-17.22,47.58,-23.23
3527.0,-172.49019607843138,35.0,313.01960784313724,3.63,17.17,-52.21
3527.05,-108.49019607843137,-78.0,-6.490196078431373,-109.62,54.3,-16.97
3527.1,-124.49019607843137,35.0,-144.49019607843138,-27.96,34.46,25.79
3527.15,-154.50980392156862,297.0,-203.0,3.39,-6.73,21.42
3527.2,313.0,297.0,9.509803921568627,20.19,-18.84,9.66
3527.25,-68.0,84.0,-98.49019607843137,-13.75,25.25,35.24
3527.3,256.5098039215686,188.50980392156862,-147.98039215686273,-98.94,69.53,81.02
3527.35,193.50980392156862,-78.0,9.509803921568627,-116.13,86.99,117.39
3527.4,27.0,-198.50980392156862,9.509803921568627,-4.51,8.45,134.05
3527.45,131.49019607843138,313.0,-67.49019607843137,-55.33,-26.64,114.97
3527.5,74.0,297.0,-190.49019607843138,-71.5,-70.85,33.74
3527.55,74.0,-247.50980392156862,-24.980392156862745,-101.78,-93.32,-111.99
3527.6,-234.50980392156862,281.0,-175.49019607843138,-74.69,-81.45,-171.88
3527.65,299.98039215686276,58.509803921568626,-298.4901960784314,167.12,21.33,24.08
3527.7,-191.0392156862745,275.4901960784314,47.529411764705884,125.61,34.11,39.58
3527.75,163.49019607843138,-209.0,-221.49019607843138,102.05,-3.89,35.07
3527.8,-234.50980392156862,-231.50980392156862,52.01960784313726,111.89,-19.5,24.22
3527.85,249.0,84.0,221.01960784313727,35.24,-4.0,3.01
3527.9,-163.0,-231.50980392156862,129.01960784313727,-75.0,-2.07,-14.2
3527.95,-4.0,150.0,298.01960784313724,25.51,-47.96,-15.6
3528.0,90.0,68.0,-52.490196078431374,-34.86,-42.53,-49.55
3528.05,-275.0,101.0,-21.49019607843137,20.68,-60.49,-57.25
3528.1,-131.0,232.0,-190.49019607843138,-19.81,-45.16,-44.83
3528.15,-227.0,101.0,-221.49019607843138,15.11,-74.91,-42.1
3528.2,-131.0,166.0,-144.49019607843138,14.83,-69.73,-50.29
3528.25,240.50980392156862,84.0,-129.49019607843138,4.96,-52.72,-41.26
3528.3,161.50980392156862,117.0,-298.4901960784314,-63.38,-18.17,0.8
3528.35,-13.490196078431373,150.0,159.01960784313727,24.14,-28.78,0.35
3528.4,145.50980392156862,248.0,-267.4901960784314,-31.36,-8.65,7.87
3528.45,-124.49019607843137,133.0,298.01960784313724,-15.82,9.54,-3.7
3528.5,-236.49019607843138,215.0,144.01960784313727,-5.67,20.95,-12.8
3528.55,-93.49019607843137,117.0,282.01960784313724,21.03,33.13,-18.72
3528.6,-61.490196078431374,264.0,-283.4901960784314,-22.57,49.79,-14.83
3528.65,-77.49019607843137,264.0,175.01960784313727,6.36,59.06,-19.31
3528.7,-140.49019607843138,232.0,-283.4901960784314,-48.16,87.9,-5.45
3528.75,-156.49019607843138,84.0,-252.49019607843138,-22.33,78.45,1.71
3528.8,-140.49019607843138,-231.50980392156862,-313.4901960784314,-14.73,75.72,10.95
3528.85,-299.4901960784314,281.0,-160.49019607843138,0.66,58.12,8.15
3528.9,-77.49019607843137,183.0,-129.49019607843138,-36.5,50.24,8.82
3528.95,-29.49019607843137,101.0,-175.49019607843138,-14.8,33.65,2.59
3529.0,97.50980392156863,297.0,-160.49019607843138,11.16,-28.29,-44.2
3529.05,186.0,199.0,-172.0,-23.48,-13.87,21.84
3529.1,-131.0,-160.0,313.01960784313724,-16.55,11.08,26.74
3529.15,-179.0,215.0,-86.98039215686275,-12.49,15.21,18.37
3529.2,-179.0,-280.5098039215686,162.50980392156862,-13.33,21.47,61.14
3529.25,-36.0,101.0,313.01960784313724,-20.75,49.93,94.04
3529.3,138.0,-45.0,301.5098039215686,-32.13,29.7,121.73
3529.35,201.0,215.0,147.50980392156862,-47.04,-23.6,107.8
3529.4,265.0,-214.50980392156862,-144.49019607843138,-135.34,-38.16,29.19
3529.45,281.0,248.0,6.019607843137255,-107.8,-75.78,-92.08
3529.5,-218.50980392156862,-2.5098039215686274,-298.4901960784314,-106.89,-68.4,-41.85
3529.55,-22.54901960784314,-170.49019607843138,-283.4901960784314,132.57,-9.25,50.78
3529.6,-295.52941176470586,215.0,63.529411764705884,73.04,-1.62,59.08
3529.65,99.49019607843137,-13.0,-298.4901960784314,58.34,-36.27,18.65
3529.7,-298.5098039215686,183.0,-221.49019607843138,101.11,-56.22,-20.15
3529.75,-52.0,13.490196078431373,206.01960784313727,5.7,-36.48,-46.23
3529.8,-52.0,101.0,-144.49019607843138,43.71,-51.28,-63.24
3529.85,-195.0,-247.50980392156862,-206.49019607843138,28.13,-53.8,-65.9
3529.9,-211.0,150.0,-37.490196078431374,66.42,-66.75,-83.54
3529.95,-243.0,183.0,163.50980392156862,127.53,-95.63,-77.97
3530.0,256.5098039215686,-312.5098039215686,-298.4901960784314,87.0,-64.16,-66.63
3530.05,34.509803921568626,101.0,-144.49019607843138,62.08,-41.8,-26.03
3530.1,-220.49019607843138,19.0,-190.49019607843138,17.32,-29.44,-2.48
3530.15,-45.490196078431374,-111.0,-67.49019607843137,-10.11,-22.58,0.21
3530.2,2.5098039215686274,-290.0,-267.4901960784314,-13.68,-28.08,-8.92
3530.25,113.50980392156863,-209.0,313.01960784313724,-4.83,-25.38,-10.35
3530.3,-13.490196078431373,-111.0,-313.4901960784314,-11.51,-22.51,-1.78
3530.35,-13.490196078431373,-127.0,-236.49019607843138,-12.98,-15.9,1.5
3530.4,-29.49019607843137,-94.0,-298.4901960784314,9.44,-16.88,3.6
3530.45,-93.49019607843137,-45.0,-160.49019607843138,15.95,-6.97,15.89
3530.5,-124.49019607843137,-127.0,-129.49019607843138,44.51,12.79,-11.3
3530.55,-108.49019607843137,166.0,-98.49019607843137,68.77,-4.98,14.07
3530.6,200.01960784313727,150.0,-221.49019607843138,-58.97,22.56,20.44
3530.65,-267.4901960784314,-258.0,9.509803921568627,-50.12,24.94,5.91
3530.7,-172.49019607843138,-176.0,282.01960784313724,-10.92,-0.64,6.3
3530.75,65.50980392156863,117.0,101.50980392156863,-33.42,-24.93,-6.82
3530.8,-108.49019607843137,-29.0,55.509803921568626,26.38,-50.3,-10.95
3530.85,81.50980392156863,117.0,-6.490196078431373,4.93,-25.59,-7.69
3530.9,2.5098039215686274,-45.0,-144.49019607843138,-13.65,-6.52,-14.52
3530.95,34.509803921568626,-62.0,221.01960784313727,23.3,-13.38,-18.05
3531.0,-61.490196078431374,-258.0,-175.49019607843138,-7.8,4.5,-12.63
3531.05,18.50980392156863,-176.0,-221.49019607843138,-0.03,7.72,-7.87
3531.1,193.50980392156862,-209.0,313.01960784313724,12.03,12.83,-20.4
3531.15,113.50980392156863,-78.0,-313.4901960784314,-6.26,3.1,-11.82
3531.2,97.50980392156863,-160.0,-98.49019607843137,8.22,6.81,-5.56
3531.25,18.50980392156863,-143.0,-190.49019607843138,20.71,5.34,10.64
3531.3,2.5098039215686274,-209.0,-160.49019607843138,5.14,5.41,16.13
3531.35,34.509803921568626,-111.0,-221.49019607843138,12.0,8.91,23.76
3531.4,81.50980392156863,-78.0,-252.49019607843138,-3.71,14.47,18.41
3531.45,18.50980392156863,-143.0,-236.49019607843138,-5.07,6.11,43.85
3531.5,113.50980392156863,319.5098039215686,144.01960784313727,15.64,-6.31,-14.2
3531.55,-29.49019607843137,3.0,101.50980392156863,7.76,-13.1,1.26
3531.6,49.509803921568626,-78.0,-98.49019607843137,-12.35,3.31,2.73
3531.65,-29.49019607843137,-176.0,-283.4901960784314,22.32,6.0,-2.44
3531.7,-108.49019607843137,-62.0,282.01960784313724,71.5,27.81,23.31
3531.75,-108.49019607843137,-78.0,-190.49019607843138,93.37,45.9,37.24
3531.8,-93.49019607843137,-160.0,175.01960784313727,106.6,55.67,46.79
3531.85,-108.49019607843137,-160.0,175.01960784313727,109.05,66.24,49.07
3531.9,-124.49019607843137,-307.0,236.01960784313727,99.99,76.77,52.95
3531.95,-93.49019607843137,-241.0,267.01960784313724,52.63,87.52,47.21
3532.0,-45.490196078431374,254.50980392156862,-252.49019607843138,41.22,79.75,34.58
3532.05,81.50980392156863,286.5098039215686,-283.4901960784314,40.1,75.65,20.26
3532.1,145.50980392156862,254.50980392156862,-6.490196078431373,33.24,71.87,12.53
3532.15,224.50980392156862,319.5098039215686,-37.490196078431374,2.09,60.18,6.51
3532.2,288.5098039215686,270.5098039215686,-52.490196078431374,-15.01,46.01,-8.04
3532.25,304.5098039215686,188.50980392156862,-52.490196078431374,-90.54,32.53,-22.29
3532.3,304.5098039215686,237.50980392156862,-36.490196078431374,-144.51,37.05,-27.54
3532.35,-290.0,123.50980392156863,-6.490196078431373,-202.23,47.51,-17.35
3532.4,-227.0,188.50980392156862,-267.4901960784314,-203.0,35.82,-33.31
3532.45,-84.0,-192.0,-6.490196078431373,-202.93,41.74,-15.53
3532.5,-20.0,-78.0,-67.49019607843137,-141.5,25.04,-27.19
3532.55,11.0,264.0,-67.49019607843137,-119.07,12.3,-21.66
3532.6,186.0,-231.50980392156862,-52.490196078431374,-62.93,-8.72,-40.49
3532.65,249.0,-263.5098039215686,9.509803921568627,37.23,-20.69,-38.81
3532.7,-250.50980392156862,226.49019607843138,129.01960784313727,-70.52,-8.23,-33.56
3532.75,313.0,183.0,-190.49019607843138,-23.55,52.83,-13.43
3532.8,186.0,297.0,-252.49019607843138,-166.14,57.1,-14.48
3532.85,170.0,281.0,144.01960784313727,-0.63,16.71,20.33
3532.9,217.0,209.49019607843138,-117.98039215686275,44.55,-7.08,29.5
3532.95,42.0,-2.5098039215686274,-113.49019607843137,41.22,-12.82,35.42
3533.0,106.0,-133.50980392156862,-267.4901960784314,22.95,-8.76,31.74
3533.05,122.0,-116.50980392156863,-221.49019607843138,1.64,8.8,31.08
3533.1,90.0,-198.50980392156862,-236.49019607843138,31.74,-2.6,36.5
3533.15,138.0,30.49019607843137,-83.49019607843137,31.74,3.62,21.66
3533.2,-20.0,-149.50980392156862,-283.4901960784314,-7.35,-1.83,-6.96
3533.25,11.0,117.0,86.50980392156863,26.07,-13.17,-28.17
3533.3,106.0,313.0,-160.49019607843138,25.51,-30.53,-58.48
3533.35,-52.0,-263.5098039215686,24.50980392156863,-56.66,-43.06,-76.5
3533.4,-275.0,-198.50980392156862,147.50980392156862,-28.7,-50.97,-89.84
3533.45,304.5098039215686,-182.50980392156862,-52.490196078431374,-87.5,-39.21,-96.03
3533.5,288.5098039215686,-116.50980392156863,-144.49019607843138,-79.48,-36.3,-84.48
3533.55,-163.0,-18.50980392156863,-144.49019607843138,52.18,21.89,-34.85
3533.6,-275.0,193.49019607843138,-175.49019607843138,-106.26,-6.87,-7.83
3533.65,27.0,226.49019607843138,236.01960784313727,135.23,-61.12,-0.62
3533.7,-147.0,-84.50980392156863,39.509803921568626,-13.61,-42.43,28.45
3533.75,-116.0,95.49019607843137,86.50980392156863,17.98,-29.34,35.45
3533.8,-52.0,-269.01960784313724,-267.4901960784314,31.81,10.38,29.12
3533.85,-4.0,-214.50980392156862,-252.49019607843138,53.72,19.69,27.75
3533.9,-52.0,-116.50980392156863,-283.4901960784314,39.86,43.98,23.34
3533.95,-179.0,-67.50980392156863,-283.4901960784314,46.4,46.85,8.05
3534.0,304.5098039215686,-100.50980392156863,-298.4901960784314,46.12,22.52,-12.28
3534.05,-179.0,-247.50980392156862,-83.49019607843137,56.8,4.11,-15.36
3534.1,-259.0,-149.50980392156862,-221.49019607843138,50.6,-2.04,-12.63
3534.15,-227.0,-116.50980392156863,313.01960784313724,37.3,-12.26,11.44
3534.2,-116.0,-214.50980392156862,-298.4901960784314,44.86,-23.46,15.05
3534.25,-4.0,-149.50980392156862,-175.49019607843138,22.95,-15.51,32.13
3534.3,-211.0,281.0,-252.49019607843138,28.13,-15.83,38.85
3534.35,-211.0,297.0,-267.4901960784314,39.26,-14.88,32.72
3534.4,-275.0,-214.50980392156862,-313.4901960784314,5.87,-7.11,17.78
3534.45,-227.0,232.0,-283.4901960784314,15.5,8.28,12.0
3534.5,-195.0,232.0,267.01960784313724,-12.63,35.33,15.5
3534.55,-68.0,281.0,175.01960784313727,53.4,36.98,29.82
3534.6,58.0,-280.5098039215686,221.01960784313727,27.12,44.47,38.32
3534.65,27.0,248.0,313.01960784313724,34.47,32.15,52.46
3534.7,74.0,-198.50980392156862,267.01960784313724,-41.02,20.14,58.41
3534.75,90.0,264.0,-298.4901960784314,-71.96,8.38,62.58
3534.8,138.0,133.0,-206.49019607843138,-79.27,-1.58,41.26
3534.85,106.0,232.0,-267.4901960784314,-60.62,-0.99,35.66
3534.9,170.0,313.0,-175.49019607843138,-103.7,4.32,10.74
3534.95,106.0,232.0,-252.49019607843138,-112.28,-8.72,-10.04
3535.0,138.0,313.0,-144.49019607843138,-90.23,-19.15,-31.0
3535.05,58.0,-214.50980392156862,-36.490196078431374,-72.45,-41.38,-33.73
3535.1,-20.0,-100.50980392156863,70.50980392156863,12.0,-64.27,-18.82
3535.15,-147.0,-51.509803921568626,209.50980392156862,66.74,-90.2,-10.46
3535.2,304.5098039215686,13.490196078431373,209.50980392156862,14.06,-55.9,-24.35
3535.25,145.50980392156862,-231.50980392156862,239.50980392156862,-122.39,-62.73,-25.72
3535.3,18.50980392156863,-2.5098039215686274,-267.4901960784314,-4.55,-83.17,12.67
3535.35,-259.0,24.980392156862745,-40.98039215686274,-43.68,-12.92,-15.32
3535.4,2.5098039215686274,-247.50980392156862,205.01960784313727,-131.46,51.61,2.69
3535.45,256.5098039215686,-149.50980392156862,206.01960784313727,-108.99,42.93,40.42
3535.5,-227.0,-220.01960784313727,-52.490196078431374,-19.74,39.46,50.54
3535.55,-195.0,160.49019607843138,-113.49019607843137,-50.78,41.0,44.45
3535.6,-195.0,128.49019607843138,101.50980392156863,-56.24,10.97,33.35
3535.65,-147.0,111.49019607843137,301.5098039215686,-87.43,14.54,16.24
3535.7,-147.0,62.490196078431374,-218.0,-79.03,16.5,8.68
3535.75,-36.0,160.49019607843138,255.50980392156862,13.99,2.15,-3.88
3535.8,-84.0,-253.01960784313727,-233.0,-27.3,24.17,-23.44
3535.85,-179.0,46.490196078431374,-295.0,-3.25,11.6,-24.32
3535.9,-147.0,-220.01960784313727,-187.0,7.03,-11.52,-34.57
3535.95,-131.0,144.49019607843138,-218.0,-48.05,0.37,-47.45
3536.0,-179.0,291.4901960784314,-187.0,-63.7,7.44,-6.96
3536.05,-163.0,-220.01960784313727,316.5098039215686,-10.53,-11.59,19.7
3536.1,-68.0,-138.01960784313727,-187.0,-3.81,1.87,11.34
3536.15,-147.0,160.49019607843138,-249.0,12.94,-0.29,6.75
3536.2,-100.0,-318.01960784313724,-203.0,29.36,-1.02,0.28
3536.25,-147.0,258.4901960784314,-279.0,-3.08,-4.59,-4.23
3536.3,-179.0,209.49019607843138,-187.0,-9.03,-10.16,-5.49
3536.35,-163.0,258.4901960784314,-218.0,-57.29,-9.91,-8.5
3536.4,-179.0,258.4901960784314,-172.0,-98.1,-13.73,-11.05
3536.45,-163.0,226.49019607843138,-126.0,-87.01,-8.2,-6.71
3536.5,-179.0,-286.01960784313724,-110.0,-91.28,0.89,0.42
3536.55,-195.0,-286.01960784313724,-95.0,-79.03,1.24,-5.98
3536.6,-179.0,193.49019607843138,135.0,-39.79,1.28,1.85
3536.65,-195.0,291.4901960784314,27.0,-46.16,-1.9,-4.3
3536.7,-195.0,193.49019607843138,212.0,-7.38,-4.38,3.18
3536.75,-195.0,-269.01960784313724,73.0,-8.99,-0.15,-1.01
3536.8,-227.0,242.49019607843138,258.0,11.96,-5.19,1.4
3536.85,-195.0,-318.01960784313724,120.0,5.98,-0.25,0.1
3536.9,-227.0,209.49019607843138,181.0,7.41,-4.24,-1.08
3536.95,-195.0,275.4901960784314,227.0,9.69,8.21,-5.14
3537.0,-211.0,258.4901960784314,104.0,-13.26,7.16,-1.39
3537.05,-211.0,-302.01960784313724,212.0,27.4,13.32,1.29
3537.1,-195.0,307.4901960784314,120.0,-26.74,7.12,-6.82
3537.15,-243.0,193.49019607843138,166.0,35.66,1.56,-5.63
3537.2,-211.0,258.4901960784314,243.0,14.66,3.48,3.78
3537.25,-227.0,-253.01960784313727,196.0,63.27,13.88,0.52
3537.3,-227.0,291.4901960784314,135.0,19.98,1.42,7.66
3537.35,-163.0,226.49019607843138,227.0,25.16,-1.06,13.82
3537.4,-179.0,-318.01960784313724,58.0,22.71,3.2,16.34
3537.45,-195.0,-302.01960784313724,73.0,5.03,3.45,8.54
3537.5,-227.0,258.4901960784314,58.0,1.95,3.27,2.97
3537.55,-211.0,275.4901960784314,-3.0,32.33,-4.87,10.81
3537.6,-259.0,-155.01960784313727,-18.0,1.15,-5.01,5.84
3537.65,-179.0,177.49019607843138,150.0,17.53,4.39,1.71
3537.7,-163.0,-269.01960784313724,-64.0,-2.66,7.54,-5.14
3537.75,-195.0,193.49019607843138,27.0,11.79,2.75,0.14
3537.8,-163.0,-220.01960784313727,-49.0,-9.62,4.81,3.04
3537.85,-179.0,307.4901960784314,27.0,-20.23,7.05,4.9
3537.9,-195.0,-318.01960784313724,12.0,-18.02,3.13,2.62
3537.95,-147.0,275.4901960784314,58.0,-12.07,1.77,1.71
3538.0,-179.0,-318.01960784313724,-3.0,-12.18,-2.32,1.05
3538.05,-179.0,291.4901960784314,58.0,-7.03,-2.81,2.45
3538.1,-163.0,-286.01960784313724,43.0,-6.3,-2.84,0.52
3538.15,-147.0,291.4901960784314,58.0,2.97,-3.44,1.4
3538.2,-131.0,-302.01960784313724,43.0,-14.21,-3.72,1.85
3538.25,-163.0,258.4901960784314,58.0,6.78,0.61,0.94
3538.3,-147.0,-302.01960784313724,104.0,4.47,-2.88,-4.19
3538.35,-100.0,275.4901960784314,89.0,1.71,-0.04,1.29
3538.4,-179.0,-302.01960784313724,-18.0,-3.11,-4.31,0.87
3538.45,-131.0,291.4901960784314,-3.0,12.87,-5.22,0.8
3538.5,-179.0,-269.01960784313724,27.0,28.76,-9.63,1.4
3538.55,-179.0,307.4901960784314,73.0,48.75,0.89,-6.15
3538.6,-163.0,242.49019607843138,43.0,37.62,-13.13,-12.7
3538.65,-100.0,-286.01960784313724,58.0,21.8,-7.43,-10.46
3538.7,-195.0,258.4901960784314,-18.0,55.75,-0.32,-20.54
3538.75,-147.0,307.4901960784314,-3.0,-35.24,6.35,-10.77
3538.8,-147.0,193.49019607843138,-79.0,5.35,3.83,1.36
3538.85,-195.0,-236.01960784313727,-49.0,12.77,9.47,-1.99
3538.9,-211.0,-302.01960784313724,-79.0,-16.76,5.55,2.13
3538.95,-179.0,193.49019607843138,-141.0,8.01,-2.98,2.17
3539.0,-195.0,-253.01960784313727,-49.0,3.74,-2.04,3.25
3539.05,-259.0,275.4901960784314,-49.0,20.4,0.86,7.0
3539.1,-227.0,258.4901960784314,12.0,11.68,1.17,3.64
3539.15,-195.0,-286.01960784313724,-95.0,12.14,-2.39,-0.8
3539.2,-179.0,291.4901960784314,-64.0,10.21,7.79,-7.45
3539.25,-227.0,275.4901960784314,-64.0,15.39,2.47,-4.54
3539.3,-163.0,275.4901960784314,-49.0,12.38,-1.51,-3.84
3539.35,-195.0,307.4901960784314,-95.0,25.72,2.64,-5.77
3539.4,-243.0,-318.01960784313724,-126.0,25.05,-2.07,-6.4
3539.45,-195.0,-318.01960784313724,-95.0,32.47,-6.97,-0.8
3539.5,-179.0,291.4901960784314,-249.0,17.42,9.22,-0.13
3539.55,-275.0,291.4901960784314,-141.0,22.01,-2.32,7.03
3539.6,-116.0,-302.01960784313724,-295.0,9.62,3.2,2.13
3539.65,-275.0,226.49019607843138,-187.0,6.89,-4.73,4.09
3539.7,-227.0,291.4901960784314,-295.0,10.04,-4.98,4.27
3539.75,-211.0,226.49019607843138,-203.0,8.11,-7.43,2.13
3539.8,-211.0,291.4901960784314,-310.0,6.61,-2.53,-2.93
3539.85,-259.0,242.49019607843138,-280.0,-1.68,0.37,-0.8
3539.9,-211.0,-318.01960784313724,-310.0,-0.98,2.01,-0.76
3539.95,-211.0,291.4901960784314,-264.0,-3.71,3.87,3.95
3540.0,-211.0,291.4901960784314,-279.0,-9.06,3.73,4.02
3540.05,-179.0,275.4901960784314,-203.0,4.05,8.0,7.7
3540.1,-211.0,258.4901960784314,-295.0,-0.14,10.76,9.83
3540.15,-195.0,-318.01960784313724,-233.0,-0.28,12.79,4.48
3540.2,-227.0,193.49019607843138,-249.0,-9.8,11.04,-1.08
3540.25,-211.0,291.4901960784314,-187.0,-11.9,9.26,-2.44
3540.3,-195.0,226.49019607843138,-218.0,-3.88,3.76,-2.16
3540.35,-179.0,307.4901960784314,-233.0,-5.81,-0.85,2.66
3540.4,-195.0,291.4901960784314,-233.0,1.25,-2.98,6.44
3540.45,-195.0,307.4901960784314,-249.0,4.51,6.39,9.76
3540.5,-163.0,258.4901960784314,-264.0,12.35,11.43,12.81
3540.55,-195.0,275.4901960784314,-279.0,-47.18,13.42,14.59
3540.6,-147.0,242.49019607843138,-203.0,-14.45,4.01,13.12
3540.65,-163.0,307.4901960784314,-279.0,-34.58,5.06,3.01
3540.7,-163.0,160.49019607843138,-141.0,-25.27,0.89,2.41
3540.75,-131.0,-318.01960784313724,-203.0,-23.2,-5.57,1.15
3540.8,-147.0,-318.01960784313724,-110.0,-189.7,0.69,15.64
3540.85,-147.0,-318.01960784313724,-80.0,-128.76,12.3,-1.46
3540.9,-68.0,-247.50980392156862,-203.0,20.54,-14.81,13.68
3540.95,-36.0,8.980392156862745,135.0,-9.52,-40.29,7.31
3541.0,-100.0,226.49019607843138,-230.50980392156862,-104.12,-39.7,-24.25
3541.05,-84.0,-318.01960784313724,304.0,-20.3,-0.67,-1.29
3541.1,-195.0,-236.01960784313727,178.50980392156862,-61.91,16.4,13.96
3541.15,-147.0,307.4901960784314,43.0,-50.75,13.88,8.36
3541.2,304.5098039215686,193.49019607843138,212.0,-58.8,27.74,16.94
3541.25,-195.0,-302.01960784313724,104.0,-39.97,35.82,15.54
3541.3,-68.0,193.49019607843138,166.0,-85.47,42.33,15.47
3541.35,-68.0,193.49019607843138,-261.5098039215686,-60.76,34.91,10.18
3541.4,-116.0,209.49019607843138,-246.50980392156862,-80.67,20.95,4.83
3541.45,-147.0,193.49019607843138,-30.50980392156863,-41.82,-4.73,-10.7
3541.5,-147.0,144.49019607843138,-15.509803921568627,-22.68,-12.05,-22.64
3541.55,-163.0,95.49019607843137,-153.50980392156862,-61.18,-13.83,-20.36
3541.6,-131.0,144.49019607843138,-169.50980392156862,-19.98,-20.41,-28.17
3541.65,-100.0,209.49019607843138,-76.50980392156863,-1.22,-15.3,-22.46
3541.7,-131.0,62.490196078431374,-76.50980392156863,-2.69,-11.45,-14.38
3541.75,-179.0,258.4901960784314,-46.509803921568626,-3.04,0.33,-1.08
3541.8,-179.0,111.49019607843137,-153.50980392156862,21.97,2.75,0.8
3541.85,-211.0,193.49019607843138,0.49019607843137253,-2.45,3.48,0.21
3541.9,-179.0,13.490196078431373,-30.50980392156863,24.49,5.06,-0.13
3541.95,-179.0,62.490196078431374,-61.509803921568626,6.75,2.05,-4.12
3542.0,-195.0,30.49019607843137,-15.509803921568627,-5.88,6.77,-11.26
3542.05,-195.0,111.49019607843137,0.49019607843137253,12.35,5.16,-0.69
3542.1,-131.0,144.49019607843138,-61.509803921568626,-5.49,1.45,-2.79
3542.15,-195.0,62.490196078431374,-15.509803921568627,-5.11,-1.76,-3.77
3542.2,-227.0,79.49019607843137,15.490196078431373,2.83,1.42,-5.73
3542.25,-195.0,30.49019607843137,-76.50980392156863,14.59,0.09,-3.95
3542.3,-195.0,79.49019607843137,-46.509803921568626,6.64,3.55,-3.67
3542.35,-211.0,193.49019607843138,-107.50980392156863,14.8,4.25,-1.46
3542.4,-211.0,95.49019607843137,-46.509803921568626,28.52,8.84,1.82
3542.45,-211.0,177.49019607843138,-153.50980392156862,31.95,7.89,2.59
3542.5,-195.0,46.490196078431374,-76.50980392156863,31.28,4.39,-0.38
3542.55,-211.0,193.49019607843138,-138.50980392156862,47.49,0.65,-1.5
3542.6,-227.0,62.490196078431374,-107.50980392156863,55.43,-0.67,-1.99
3542.65,-163.0,242.49019607843138,-246.50980392156862,68.66,-1.65,5.67
3542.7,-227.0,193.49019607843138,-153.50980392156862,87.84,-0.95,11.34
3542.75,-211.0,-318.01960784313724,304.0,85.25,4.92,7.28
3542.8,-290.0,-318.01960784313724,304.0,7.9,3.38,2.8
3542.85,-259.0,62.490196078431374,273.0,24.88,-0.95,-0.03
3542.9,-179.0,-269.01960784313724,227.0,-47.67,2.71,-6.08
3542.95,-211.0,128.49019607843138,212.0,-35.28,4.81,-1.88
3543.0,-195.0,-318.01960784313724,227.0,-4.44,1.49,-0.8
3543.05,-227.0,-302.01960784313724,258.0,-5.6,-3.75,0.24
3543.1,-195.0,226.49019607843138,289.0,-9.76,-1.13,-1.99
3543.15,-243.0,226.49019607843138,243.0,-0.17,0.82,-2.13
3543.2,-211.0,258.4901960784314,258.0,-3.53,0.37,-2.93
3543.25,-211.0,226.49019607843138,258.0,1.39,-0.22,-1.5
3543.3,-211.0,291.4901960784314,258.0,-1.15,-0.46,-0.76
3543.35,-227.0,258.4901960784314,273.0,-0.87,0.44,0.0
3543.4,-211.0,242.49019607843138,273.0,-3.08,1.03,0.31
3543.45,-243.0,242.49019607843138,273.0,-3.36,1.56,-1.01
3543.5,-243.0,242.49019607843138,273.0,-4.09,0.47,-0.24
3543.55,-211.0,242.49019607843138,258.0,-0.66,-0.46,-0.06
3543.6,-227.0,242.49019607843138,273.0,-1.78,-0.11,-1.22
3543.65,-211.0,209.49019607843138,304.0,-1.92,-0.57,-1.15
3543.7,-211.0,242.49019607843138,304.0,-2.1,-0.39,0.42
3543.75,-227.0,242.49019607843138,304.0,-1.99,0.33,0.42
3543.8,-275.0,226.49019607843138,289.0,-1.64,0.16,-0.13
3543.85,-211.0,226.49019607843138,289.0,-2.94,0.51,0.03
3543.9,-227.0,242.49019607843138,319.0,-1.19,0.47,0.49
3543.95,-227.0,242.49019607843138,304.0,0.38,-0.71,0.49
3544.0,-243.0,258.4901960784314,304.0,0.13,-0.04,0.1
3544.05,-227.0,242.49019607843138,304.0,-0.8,1.17,0.28
3544.1,-227.0,242.49019607843138,289.0,4.47,0.96,0.8
3544.15,-243.0,258.4901960784314,273.0,6.61,1.59,-0.48
3544.2,-290.0,242.49019607843138,289.0,11.02,3.62,-3.32
3544.25,-259.0,242.49019607843138,258.0,18.19,2.36,-0.66
3544.3,-243.0,275.4901960784314,273.0,30.69,0.89,4.23
3544.35,-227.0,291.4901960784314,273.0,29.99,-1.02,7.77
3544.4,-275.0,258.4901960784314,258.0,47.24,1.87,8.36
3544.45,-275.0,275.4901960784314,166.0,32.05,11.22,8.78
3544.5,-290.0,258.4901960784314,166.0,35.48,22.03,10.78
3544.55,-259.0,-253.01960784313727,181.0,29.78,19.41,21.84
3544.6,-259.0,275.4901960784314,58.0,24.21,11.36,20.65
3544.65,-243.0,128.49019607843138,-18.0,33.03,24.45,9.45
3544.7,304.5098039215686,111.49019607843137,-79.0,46.86,35.86,-24.53
3544.75,-147.0,171.98039215686273,104.0,-2.17,32.95,25.06
3544.8,-227.0,111.49019607843137,-33.0,-56.21,23.78,9.24
3544.85,-116.0,275.4901960784314,243.0,-11.93,16.29,10.53
3544.9,-36.0,-302.01960784313724,89.0,-6.05,10.48,5.14
3544.95,-68.0,291.4901960784314,150.0,0.87,7.44,5.42
3545.0,-131.0,-269.01960784313724,58.0,6.08,1.1,-1.6
3545.05,-116.0,275.4901960784314,58.0,38.88,4.04,-6.22
3545.1,-227.0,291.4901960784314,58.0,-8.01,-0.85,-3.18
3545.15,-179.0,226.49019607843138,73.0,-22.47,-4.91,0.42
3545.2,-131.0,-318.01960784313724,-18.0,-15.82,-0.53,4.37
3545.25,-179.0,307.4901960784314,43.0,-4.79,0.4,11.93
3545.3,-163.0,-253.01960784313727,12.0,-6.93,4.64,1.22
3545.35,-163.0,275.4901960784314,89.0,-2.73,6.74,-5.28
3545.4,-131.0,275.4901960784314,58.0,-11.79,2.26,-10.07
3545.45,-131.0,275.4901960784314,12.0,-1.4,0.65,-5.59
3545.5,-179.0,-318.01960784313724,43.0,-4.13,-4.52,-4.02
3545.55,-179.0,307.4901960784314,73.0,4.4,-4.91,-1.32
3545.6,-195.0,307.4901960784314,119.0,0.62,-2.0,0.8
3545.65,-195.0,-318.01960784313724,43.0,9.55,1.21,-1.43
3545.7,-163.0,-318.01960784313724,27.0,11.23,2.01,1.54
3545.75,-163.0,-318.01960784313724,58.0,13.96,4.88,1.92
3545.8,-211.0,-318.01960784313724,43.0,3.04,3.52,2.31
3545.85,-195.0,291.4901960784314,43.0,-2.17,-0.5,1.54
3545.9,-179.0,291.4901960784314,-3.0,7.2,5.16,4.09
3545.95,-163.0,-318.01960784313724,-3.0,6.61,-0.81,3.5
3546.0,-163.0,291.4901960784314,135.0,-0.07,-5.99,1.15
3546.05,-195.0,307.4901960784314,43.0,14.87,-1.06,2.76
3546.1,-179.0,258.4901960784314,-3.0,0.0,-5.43,2.24
3546.15,-163.0,307.4901960784314,89.0,3.14,-2.39,3.81
3546.2,-147.0,-318.01960784313724,-49.0,3.39,-0.74,-0.9
3546.25,-195.0,291.4901960784314,12.0,8.78,0.96,-5.7
3546.3,-211.0,226.49019607843138,-18.0,26.17,7.51,-21.13
3546.35,-163.0,258.4901960784314,-3.0,-22.36,4.22,-7.59
3546.4,-290.0,209.49019607843138,150.0,12.52,5.48,-0.66
3546.45,-243.0,-187.01960784313727,-126.0,-1.85,-1.44,3.15
3546.5,-163.0,-318.01960784313724,-33.0,5.66,-4.17,5.95
3546.55,-179.0,-318.01960784313724,-49.0,-19.42,-10.54,3.6
3546.6,-195.0,307.4901960784314,-18.0,-1.89,-0.25,6.33
3546.65,-259.0,-253.01960784313727,-3.0,-7.1,-15.79,-1.64
3546.7,-131.0,307.4901960784314,104.0,49.9,6.42,3.29
3546.75,-163.0,-318.01960784313724,-310.0,-15.5,5.23,-0.87
3546.8,-163.0,177.49019607843138,-18.0,11.54,1.17,-3.42
3546.85,-163.0,-269.01960784313724,12.0,0.06,-0.6,-2.37
3546.9,-147.0,291.4901960784314,-49.0,-10.85,-8.09,0.24
3546.95,-195.0,-318.01960784313724,-3.0,-7.87,-5.75,5.63
3547.0,-179.0,-286.01960784313724,-64.0,-7.56,-5.08,4.83
3547.05,-259.0,258.4901960784314,120.0,2.79,-6.03,6.58
3547.1,27.0,-73.01960784313725,-33.0,37.79,1.49,3.11
3547.15,-195.0,242.49019607843138,58.0,-2.52,9.26,-3.6
3547.2,-147.0,79.49019607843137,89.0,9.9,-0.29,-3.6
3547.25,-163.0,-253.01960784313727,-3.0,-2.97,-2.04,-0.83
3547.3,-179.0,307.4901960784314,-3.0,-2.34,-5.08,2.73
3547.35,-163.0,-302.01960784313724,-49.0,-8.64,-5.4,4.93
3547.4,-227.0,242.49019607843138,43.0,-6.58,-1.86,3.01
3547.45,-211.0,-286.01960784313724,-18.0,-6.47,-0.6,1.64
3547.5,-131.0,-318.01960784313724,-3.0,14.97,-5.26,-5.73
3547.55,-211.0,46.490196078431374,-230.50980392156862,16.86,4.85,-0.59
3547.6,-211.0,209.49019607843138,-18.0,-10.6,6.14,-1.78
3547.65,-227.0,209.49019607843138,12.0,2.44,0.37,-1.5
3547.7,-179.0,-236.01960784313727,-64.0,-6.47,-0.95,-1.92
3547.75,-195.0,291.4901960784314,-33.0,4.44,0.89,0.98
3547.8,-179.0,-286.01960784313724,-18.0,-7.7,-1.62,3.81
3547.85,-179.0,307.4901960784314,-18.0,-4.55,-3.86,2.83
3547.9,-195.0,-318.01960784313724,-18.0,2.69,-6.8,4.65
3547.95,-195.0,226.49019607843138,27.0,0.31,-1.34,4.37
3548.0,-227.0,-302.01960784313724,27.0,4.47,-5.15,4.69
3548.05,-179.0,275.4901960784314,-3.0,22.57,0.09,8.01
3548.1,-211.0,-253.01960784313727,-64.0,12.24,3.66,-2.34
3548.15,-163.0,177.49019607843138,27.0,5.66,8.56,-8.11
3548.2,-147.0,275.4901960784314,-49.0,-7.38,5.3,-6.68
3548.25,-147.0,291.4901960784314,-64.0,-4.9,1.0,-2.44
3548.3,-195.0,-220.01960784313727,-33.0,-8.43,-0.78,2.1
3548.35,-195.0,-286.01960784313724,-64.0,3.25,0.61,3.22
3548.4,-195.0,-302.01960784313724,-49.0,-1.36,1.14,-1.11
3548.45,-195.0,258.4901960784314,-18.0,2.09,2.85,-2.16
3548.5,-195.0,-318.01960784313724,-33.0,15.6,5.3,-1.71
3548.55,-163.0,-318.01960784313724,-33.0,25.54,5.79,-1.57
3548.6,-179.0,307.4901960784314,-18.0,35.45,4.15,-2.9
3548.65,-195.0,291.4901960784314,-64.0,26.63,-0.01,-0.76
3548.7,-195.0,258.4901960784314,-49.0,44.62,3.66,-2.13
3548.75,-195.0,-318.01960784313724,-110.0,21.87,1.45,-1.85
3548.8,-179.0,242.49019607843138,-110.0,21.1,2.71,0.17
3548.85,-179.0,291.4901960784314,-126.0,14.03,3.31,1.43
3548.9,-195.0,307.4901960784314,-172.0,29.29,4.01,1.61
3548.95,-211.0,-302.01960784313724,-218.0,34.57,4.71,1.61
3549.0,-163.0,258.4901960784314,-187.0,20.92,3.1,0.8
3549.05,-179.0,242.49019607843138,-233.0,2.58,0.26,-1.46
3549.1,-179.0,226.49019607843138,-249.0,6.47,0.02,-2.37
3549.15,-179.0,242.49019607843138,-264.0,-13.47,1.14,2.1
3549.2,-211.0,275.4901960784314,-264.0,-76.4,-7.01,0.98
3549.25,-195.0,226.49019607843138,-264.0,-31.95,-5.99,1.75
3549.3,-147.0,-302.01960784313724,-141.0,-40.25,-4.73,0.21
3549.35,-163.0,226.49019607843138,-203.0,-20.86,-0.81,1.57
3549.4,-195.0,-318.01960784313724,-156.0,-14.0,-2.7,4.76
3549.45,-179.0,307.4901960784314,-126.0,-18.48,-1.06,0.73
3549.5,-195.0,258.4901960784314,-64.0,-3.85,-2.91,1.47
3549.55,-195.0,307.4901960784314,-110.0,-0.87,-1.2,0.07
3549.6,-195.0,-318.01960784313724,-79.0,1.25,-1.83,0.91
3549.65,-179.0,-302.01960784313724,-49.0,-3.88,-2.28,1.82
3549.7,-211.0,307.4901960784314,-79.0,-3.88,-3.72,1.99
3549.75,-179.0,307.4901960784314,-79.0,-3.81,-1.55,0.1
3549.8,-179.0,-318.01960784313724,-80.0,0.34,-0.85,0.38
3549.85,-179.0,307.4901960784314,-64.0,-3.95,0.68,0.24
3549.9,-211.0,291.4901960784314,-49.0,-0.56,1.21,-0.52
3549.95,-179.0,307.4901960784314,-49.0,-1.82,0.72,0.94
3550.0,-163.0,-318.01960784313724,-79.0,-0.98,-0.22,0.7
3550.05,-179.0,291.4901960784314,-49.0,-2.13,0.47,0.14
3550.1,-195.0,307.4901960784314,-49.0,2.44,-0.15,-0.27
3550.15,-179.0,307.4901960784314,-64.0,5.28,-0.32,0.03
3550.2,-163.0,-318.01960784313724,-64.0,5.28,0.61,0.17
3550.25,-179.0,307.4901960784314,-33.0,1.88,2.26,0.45
3550.3,-211.0,-318.01960784313724,-64.0,7.48,1.73,1.64
3550.35,-211.0,-318.01960784313724,-110.0,5.98,4.6,1.4
3550.4,-179.0,242.49019607843138,-64.0,-3.18,3.8,0.91
3550.45,-179.0,291.4901960784314,-79.0,6.82,5.58,-1.08
3550.5,-195.0,-318.01960784313724,-110.0,-3.71,8.24,-1.22
3550.55,-211.0,258.4901960784314,-79.0,3.67,7.47,0.91
3550.6,-163.0,-286.01960784313724,-110.0,-1.99,5.72,1.85
3550.65,-179.0,242.49019607843138,-64.0,-0.52,4.43,-0.94
3550.7,-163.0,-318.01960784313724,-95.0,11.12,4.67,-0.1
3550.75,-179.0,-318.01960784313724,-110.0,6.75,5.34,-1.43
3550.8,-179.0,307.4901960784314,-64.0,-0.7,5.51,-2.16
3550.85,-195.0,275.4901960784314,-95.0,2.55,5.69,1.08
3550.9,-179.0,275.4901960784314,-95.0,27.71,7.82,8.12
3550.95,-211.0,291.4901960784314,73.0,-7.84,17.13,-0.48
3551.0,-195.0,128.49019607843138,-64.0,14.83,19.16,1.85
3551.05,-211.0,291.4901960784314,-187.0,8.46,14.72,-2.3
3551.1,-179.0,275.4901960784314,-126.0,4.44,9.54,-3.25
3551.15,-179.0,307.4901960784314,-110.0,1.99,5.13,-4.16
3551.2,-163.0,258.4901960784314,-156.0,12.98,5.86,-4.3
3551.25,-195.0,-302.01960784313724,-156.0,1.6,-1.2,0.59
3551.3,-163.0,-318.01960784313724,-156.0,-3.6,-5.36,4.97
3551.35,-195.0,226.49019607843138,-49.0,1.78,-4.94,5.84
3551.4,-211.0,-253.01960784313727,-126.0,5.28,-0.95,2.17
3551.45,-179.0,275.4901960784314,-141.0,18.4,-4.49,6.05
3551.5,-163.0,160.49019607843138,166.0,-12.7,6.91,-3.63
3551.55,-227.0,128.49019607843138,-126.0,27.68,6.49,3.99
3551.6,-179.0,-302.01960784313724,-187.0,8.74,3.17,2.03
3551.65,-195.0,291.4901960784314,-172.0,20.96,0.02,1.64
3551.7,-195.0,307.4901960784314,-218.0,18.09,-1.3,2.03
3551.75,-195.0,275.4901960784314,-187.0,8.15,-1.16,0.42
3551.8,-179.0,291.4901960784314,-233.0,-17.43,-6.59,1.82
3551.85,-147.0,226.49019607843138,-233.0,-17.15,-6.9,6.47
3551.9,-195.0,291.4901960784314,-187.0,-9.06,-4.38,4.16
3551.95,-227.0,-302.01960784313724,-233.0,-3.39,-2.18,0.49
3552.0,-147.0,291.4901960784314,-172.0,-1.01,-4.0,-1.11
3552.05,-147.0,275.4901960784314,-172.0,6.75,-4.87,-0.13
3552.1,-163.0,-318.01960784313724,-218.0,2.62,-6.45,0.87
3552.15,-163.0,258.4901960784314,-187.0,26.94,-3.75,4.51
3552.2,-195.0,-269.01960784313724,-295.0,9.09,3.38,-0.97
3552.25,-195.0,209.49019607843138,-187.0,22.15,2.99,2.94
3552.3,-179.0,-318.01960784313724,-264.0,6.82,1.94,0.42
3552.35,-195.0,209.49019607843138,-203.0,17.39,-0.22,1.57
3552.4,-147.0,307.4901960784314,-233.0,-10.39,-1.51,0.24
3552.45,-147.0,226.49019607843138,-233.0,-33.53,-6.48,0.94
3552.5,-131.0,291.4901960784314,-249.0,-24.43,-7.92,2.24
3552.55,-195.0,-302.01960784313724,-203.0,-12.56,-6.8,0.59
3552.6,-179.0,307.4901960784314,-249.0,-15.01,-5.96,-1.29
3552.65,-163.0,-318.01960784313724,-172.0,2.97,-1.27,-0.59
3552.7,-179.0,307.4901960784314,-156.0,-8.4,-1.86,-3.49
3552.75,-163.0,242.49019607843138,-126.0,-2.9,3.13,-2.86
3552.8,-179.0,-302.01960784313724,-218.0,9.55,-0.36,-2.55
3552.85,-195.0,258.4901960784314,-172.0,5.03,3.06,-5.8
3552.9,-179.0,258.4901960784314,-187.0,5.66,0.16,-2.16
3552.95,-163.0,307.4901960784314,-141.0,11.54,2.92,-1.25
3553.0,-211.0,-318.01960784313724,-187.0,-0.8,-0.22,-0.52
3553.05,-179.0,275.4901960784314,-187.0,1.18,0.47,-0.69
3553.1,-195.0,307.4901960784314,-187.0,-0.42,0.37,-0.17
3553.15,-195.0,291.4901960784314,-172.0,-0.42,0.54,-0.48
3553.2,-211.0,307.4901960784314,-187.0,-4.37,-0.88,-1.99
3553.25,-179.0,291.4901960784314,-203.0,0.48,-1.13,-2.37
3553.3,-211.0,291.4901960784314,-218.0,-1.54,-1.2,-0.83
3553.35,-211.0,291.4901960784314,-156.0,-0.14,-1.72,2.1
3553.4,-211.0,-318.01960784313724,-172.0,0.59,-1.51,1.19
3553.45,-211.0,291.4901960784314,-172.0,2.3,-1.37,1.08
3553.5,-195.0,275.4901960784314,-172.0,2.34,-1.27,0.17
3553.55,-195.0,275.4901960784314,-218.0,4.44,0.16,0.63
3553.6,-243.0,291.4901960784314,-218.0,1.57,-0.29,0.1
3553.65,-211.0,291.4901960784314,-172.0,0.34,0.33,-0.52
3553.7,-211.0,258.4901960784314,-203.0,1.18,0.79,-0.1
3553.75,-211.0,291.4901960784314,-203.0,0.03,0.75,0.7
3553.8,-211.0,291.4901960784314,-172.0,0.34,1.07,-0.38
3553.85,-211.0,291.4901960784314,-203.0,1.67,0.33,-0.59
3553.9,-195.0,291.4901960784314,-203.0,-0.87,0.23,0.1
3553.95,-195.0,275.4901960784314,-187.0,-0.56,0.19,1.05
3554.0,-195.0,275.4901960784314,-172.0,-0.59,0.44,-0.38
3554.05,-211.0,307.4901960784314,-203.0,0.03,0.61,-1.22
3554.1,-211.0,258.4901960784314,-187.0,-1.5,0.16,-0.03
3554.15,-211.0,307.4901960784314,-187.0,-0.98,-0.18,0.31
3554.2,-211.0,291.4901960784314,-172.0,-0.94,-0.6,0.28
3554.25,-211.0,307.4901960784314,-187.0,-1.29,-1.69,-0.03
3554.3,-211.0,291.4901960784314,-187.0,-0.35,-1.06,0.49
3554.35,-211.0,291.4901960784314,-156.0,-0.42,-0.11,0.45
3554.4,-227.0,307.4901960784314,-187.0,-0.42,-0.15,0.73
3554.45,-211.0,275.4901960784314,-172.0,-2.1,-0.85,0.07
3554.5,-195.0,275.4901960784314,-203.0,-1.68,-0.74,0.49
3554.55,-211.0,291.4901960784314,-187.0,-1.29,-1.02,1.12
3554.6,-227.0,291.4901960784314,-172.0,-0.91,-0.92,1.01
3554.65,-227.0,291.4901960784314,-187.0,-1.12,-1.16,0.49
3554.7,-195.0,275.4901960784314,-187.0,-0.59,-0.81,-0.34
3554.75,-227.0,275.4901960784314,-187.0,0.0,-0.43,1.12
3554.8,-211.0,291.4901960784314,-172.0,-1.36,-0.5,1.43
3554.85,-195.0,291.4901960784314,-172.0,-28.14,-5.75,0.73
3554.9,-211.0,291.4901960784314,-126.0,-16.83,-3.47,3.11
3554.95,-179.0,307.4901960784314,-95.0,1.53,0.68,7.66
3555.0,-227.0,-318.01960784313724,-203.0,-6.23,0.47,6.79
3555.05,-211.0,275.4901960784314,-95.0,-3.6,1.35,5.6
3555.1,-227.0,275.4901960784314,-141.0,-11.65,-0.29,4.55
3555.15,-195.0,291.4901960784314,-126.0,6.33,4.18,3.74
3555.2,-195.0,-302.01960784313724,-126.0,2.34,3.97,0.8
3555.25,-195.0,291.4901960784314,-141.0,28.27,5.72,0.14
3555.3,-163.0,-318.01960784313724,-110.0,17.56,5.27,-2.69
3555.35,-163.0,307.4901960784314,-156.0,0.52,0.58,-0.66
3555.4,-131.0,275.4901960784314,-110.0,-6.58,-1.41,-0.45
3555.45,-195.0,-318.01960784313724,-172.0,-6.33,-1.13,0.31
3555.5,-195.0,-302.01960784313724,-172.0,-15.36,-4.52,1.64
3555.55,-179.0,275.4901960784314,-156.0,-2.87,-2.53,2.62
3555.6,-179.0,-286.01960784313724,-141.0,-10.53,-4.42,3.01
3555.65,-163.0,242.49019607843138,-126.0,3.32,-1.65,3.99
3555.7,-195.0,-269.01960784313724,-156.0,8.04,0.16,0.31
3555.75,-195.0,258.4901960784314,-126.0,12.77,-2.28,-0.73
3555.8,-179.0,275.4901960784314,-141.0,7.1,-0.67,-2.58
3555.85,-195.0,275.4901960784314,-172.0,5.73,10.59,-4.37
3555.9,-195.0,291.4901960784314,-187.0,-3.71,3.66,-2.06
3555.95,-195.0,-220.01960784313727,-249.0,8.57,2.29,-0.97
3556.0,-179.0,-318.01960784313724,-187.0,2.3,1.1,-0.34
3556.05,-163.0,258.4901960784314,-156.0,1.36,1.35,0.1
3556.1,-195.0,307.4901960784314,-187.0,-0.35,1.84,0.1
3556.15,-195.0,291.4901960784314,-156.0,-1.43,0.79,-0.66
3556.2,-179.0,275.4901960784314,-172.0,-1.54,-0.15,-0.17
3556.25,-195.0,291.4901960784314,-172.0,-0.8,0.26,0.07
3556.3,-195.0,275.4901960784314,-172.0,-1.22,0.61,-0.97
3556.35,-211.0,291.4901960784314,-156.0,-1.54,0.12,-0.97
3556.4,-195.0,291.4901960784314,-126.0,-0.66,-0.67,-0.24
3556.45,-163.0,307.4901960784314,-156.0,-0.07,-0.29,0.63
3556.5,-195.0,291.4901960784314,-172.0,-1.22,-0.53,0.7
3556.55,-195.0,307.4901960784314,-156.0,0.24,-0.57,0.03
3556.6,-195.0,291.4901960784314,-172.0,-2.31,-1.23,-0.41
3556.65,-179.0,275.4901960784314,-187.0,-0.14,0.23,-0.59
3556.7,-195.0,307.4901960784314,-172.0,-3.11,0.19,-1.11
3556.75,-195.0,275.4901960784314,-172.0,-5.74,-0.29,-2.3
3556.8,-211.0,291.4901960784314,-172.0,-2.83,-0.81,-2.16
3556.85,-211.0,307.4901960784314,-172.0,-5.7,-0.04,-3.63
3556.9,-195.0,275.4901960784314,-156.0,-3.32,-0.04,-3.25
3556.95,-195.0,307.4901960784314,-156.0,-0.7,1.38,-3.91
3557.0,-211.0,-318.01960784313724,-156.0,-1.89,1.28,-2.97
3557.05,-243.0,258.4901960784314,-141.0,1.57,1.21,-3.35
3557.1,-259.0,291.4901960784314,-126.0,6.36,3.8,-0.62
3557.15,-227.0,291.4901960784314,-187.0,-0.24,-4.1,-1.29
3557.2,-211.0,242.49019607843138,-79.0,5.03,-1.58,6.05
3557.25,-259.0,-318.01960784313724,-187.0,33.31,11.22,19.81
3557.3,-243.0,-285.01960784313724,-141.0,14.27,-0.92,13.86
3557.35,-195.0,291.4901960784314,-156.0,-63.03,-18.7,15.05
3557.4,-195.0,307.4901960784314,-203.0,-63.07,-11.63,24.67
3557.45,-259.0,-253.01960784313727,-141.0,-25.44,-5.4,12.84
3557.5,-147.0,-302.01960784313724,-156.0,7.34,2.4,5.32
3557.55,-163.0,275.4901960784314,-64.0,6.57,-4.42,-2.23
3557.6,-131.0,242.49019607843138,-64.0,16.16,-7.57,-15.46
3557.65,-179.0,275.4901960784314,-64.0,-8.4,-23.18,-15.04
3557.7,-163.0,291.4901960784314,-18.0,-12.84,-25.7,-20.96
3557.75,-52.0,307.4901960784314,58.0,-54.63,-19.22,-5.28
3557.8,-116.0,144.49019607843138,-126.0,-43.78,-12.19,-1.18
3557.85,-163.0,-269.01960784313724,-64.0,-25.06,-6.24,-4.33
3557.9,-227.0,307.4901960784314,-79.0,-40.91,-15.16,-13.64
3557.95,-195.0,242.49019607843138,58.0,-1.19,-9.14,-8.11
3558.0,-290.0,-269.01960784313724,43.0,-9.24,-7.43,-4.05
3558.05,-147.0,291.4901960784314,-18.0,-15.01,-8.69,-0.41
3558.1,-243.0,-318.01960784313724,27.0,3.0,-0.88,-0.24
3558.15,-259.0,-302.01960784313724,104.0,1.5,-9.46,9.31
3558.2,-179.0,-318.01960784313724,89.0,4.54,-6.73,-2.27
3558.25,-195.0,-318.01960784313724,89.0,4.51,-12.89,1.92
3558.3,-100.0,258.4901960784314,104.0,-0.38,-7.32,-1.99
3558.35,-211.0,258.4901960784314,73.0,1.99,-8.13,-3.42
3558.4,-211.0,-318.01960784313724,12.0,-0.87,-1.9,-1.22
3558.45,-227.0,307.4901960784314,58.0,0.31,2.12,-1.32
3558.5,-243.0,-318.01960784313724,43.0,-1.08,1.87,0.14
3558.55,-131.0,275.4901960784314,73.0,0.03,1.1,0.1
3558.6,-195.0,291.4901960784314,89.0,4.44,-1.41,-0.45
3558.65,-195.0,-318.01960784313724,89.0,-1.75,-1.09,1.26
3558.7,-275.0,258.4901960784314,89.0,-3.08,5.3,0.59
3558.75,-243.0,307.4901960784314,43.0,-4.2,-0.01,7.28
3558.8,-243.0,307.4901960784314,73.0,6.61,0.93,8.89
3558.85,-243.0,307.4901960784314,150.0,15.78,2.05,7.31
3558.9,-227.0,307.4901960784314,104.0,18.09,13.53,-8.46
3558.95,-227.0,-302.01960784313724,58.0,15.64,11.15,-0.62
3559.0,-195.0,258.4901960784314,27.0,18.75,1.56,1.33
3559.05,-259.0,177.49019607843138,73.0,11.19,-11.0,13.16
3559.1,-195.0,79.49019607843137,-49.0,33.1,-6.03,-9.83
3559.15,-84.0,155.98039215686273,166.0,4.19,-3.3,15.92
3559.2,-211.0,95.49019607843137,27.0,1.99,-0.15,3.57
3559.25,-179.0,275.4901960784314,58.0,-6.16,-5.4,3.25
3559.3,-163.0,242.49019607843138,43.0,-0.1,-7.08,2.73
3559.35,-211.0,-302.01960784313724,12.0,0.62,-4.84,3.92
3559.4,-147.0,307.4901960784314,-3.0,7.66,0.75,0.98
3559.45,-195.0,291.4901960784314,12.0,-1.85,1.07,-2.06
3559.5,-131.0,307.4901960784314,-3.0,6.05,4.5,2.76
3559.55,-163.0,-318.01960784313724,-18.0,-2.73,6.98,0.24
3559.6,-195.0,258.4901960784314,12.0,18.3,2.54,-1.57
