rel_time,acc_x,acc_y,acc_z,gyro_x,gyro_y,gyro_z
2323.0,-116.0,-94.0,190.01960784313727,23.64,-2.15,0.39
2323.05,11.0,-127.0,221.01960784313727,14.37,9.63,-10.31
2323.1,27.0,-274.0,206.01960784313727,27.39,8.55,-0.4
2323.15,58.0,-258.0,159.01960784313727,22.91,29.06,-1.21
2323.2,-36.0,-241.0,113.01960784313725,36.07,25.1,-0.82
2323.25,-20.0,-258.0,206.01960784313727,30.43,21.64,-5.58
2323.3,-52.0,-176.0,-313.4901960784314,24.55,17.26,-7.33
2323.35,-4.0,-258.0,-236.49019607843138,15.0,10.02,-2.99
2323.4,42.0,-258.0,-190.49019607843138,6.35,6.06,0.78
2323.45,27.0,-258.0,-221.49019607843138,3.24,2.0,-0.37
2323.5,74.0,-274.0,-252.49019607843138,-8.41,1.58,0.6
2323.55,106.0,-274.0,-298.4901960784314,-7.18,1.09,3.33
2323.6,122.0,-290.0,-298.4901960784314,-7.81,3.16,4.21
2323.65,58.0,-290.0,-313.4901960784314,0.02,0.67,4.52
2323.7,122.0,-290.0,298.01960784313724,-0.71,0.64,2.7
2323.75,90.0,319.5098039215686,298.01960784313724,2.82,0.46,-1.14
2323.8,90.0,-307.0,282.01960784313724,11.01,0.81,-0.61
2323.85,122.0,-307.0,282.01960784313724,0.68,0.57,2.04
2323.9,90.0,286.5098039215686,-313.4901960784314,4.57,-0.65,0.04
2323.95,58.0,-274.0,298.01960784313724,2.78,0.39,4.66
2324.0,74.0,303.5098039215686,313.01960784313724,9.15,0.64,1.16
2324.05,74.0,-307.0,-313.4901960784314,5.09,-2.36,0.11
2324.1,106.0,303.5098039215686,-298.4901960784314,5.2,-5.02,0.25
2324.15,106.0,303.5098039215686,-298.4901960784314,10.27,-8.94,10.86
2324.2,42.0,319.5098039215686,267.01960784313724,6.21,2.53,-13.25
2324.25,42.0,270.5098039215686,-283.4901960784314,19.34,-11.01,-46.15
2324.3,-20.0,319.5098039215686,282.01960784313724,65.11,69.34,90.06
2324.35,42.0,319.5098039215686,252.01960784313727,12.51,7.11,5.99
2324.4,-218.50980392156862,145.01960784313727,267.01960784313724,-8.41,21.15,10.65
2324.45,249.0,-23.49019607843137,206.01960784313727,25.36,-2.33,4.38
2324.5,81.50980392156863,-214.50980392156862,236.01960784313727,16.12,0.25,8.16
2324.55,-234.50980392156862,319.5098039215686,-67.49019607843137,6.21,1.55,8.44
2324.6,140.98039215686273,276.01960784313724,205.01960784313727,11.5,4.87,6.45
2324.65,42.0,199.0,-101.98039215686275,-10.44,11.31,9.63
2324.7,256.5098039215686,-160.0,-129.49019607843138,-0.57,11.59,11.7
2324.75,210.49019607843138,31.019607843137255,-313.4901960784314,-2.04,14.81,11.56
2324.8,106.0,-258.0,-221.49019607843138,19.93,16.28,15.79
2324.85,34.509803921568626,264.0,39.509803921568626,21.61,28.04,4.8
2324.9,-91.50980392156863,194.01960784313727,-129.49019607843138,37.22,27.52,6.76
2324.95,-234.50980392156862,-154.49019607843138,313.01960784313724,54.13,12.71,-3.24
2325.0,161.50980392156862,3.0,159.01960784313727,101.87,18.73,-4.15
2325.05,297.0,-279.98039215686276,247.52941176470588,113.87,31.37,-53.78
2325.1,274.4901960784314,-209.47058823529412,-228.47058823529412,54.62,95.84,-70.26
2325.15,65.50980392156863,-89.49019607843137,124.52941176470588,104.25,109.07,-101.59
2325.2,11.0,259.01960784313724,-255.98039215686273,130.36,104.55,-123.36
2325.25,-241.01960784313727,-181.98039215686273,-70.98039215686275,129.73,95.87,-142.96
2325.3,-116.0,101.0,252.01960784313727,27.63,112.43,-120.31
2325.35,106.0,139.50980392156862,55.509803921568626,92.91,84.5,-131.72
2325.4,140.98039215686273,-252.49019607843138,132.50980392156862,26.65,114.32,-194.16
2325.45,-313.5098039215686,303.5098039215686,-95.0,18.25,94.47,-221.15
2325.5,249.0,-62.0,273.0,-41.87,40.75,-211.14
2325.55,-116.0,-263.5098039215686,-92.50980392156863,-15.44,-93.47,-170.5
2325.6,-116.0,-280.5098039215686,169.49019607843138,192.87,-89.09,-28.37
2325.65,-4.0,79.49019607843137,243.0,72.78,-36.84,-36.84
2325.7,19.49019607843137,-78.0,-218.0,23.47,19.54,40.92
2325.75,-209.01960784313727,-192.0,-86.98039215686275,-23.56,27.34,74.91
2325.8,258.4901960784314,232.0,316.5098039215686,-85.34,17.37,14.18
2325.85,-273.01960784313724,-290.0,58.0,-174.77,-5.76,14.64
2325.9,-130.01960784313727,188.50980392156862,273.0,-138.57,38.68,11.0
2325.95,-11.509803921568627,-13.0,320.0,10.97,-47.69,67.14
2326.0,-193.01960784313727,144.49019607843138,255.50980392156862,-107.88,77.57,141.06
2326.05,163.49019607843138,145.01960784313727,232.52941176470588,-132.9,67.07,69.34
2326.1,-320.01960784313724,-94.0,113.01960784313725,65.26,4.73,73.47
2326.15,-123.50980392156863,318.98039215686276,-107.50980392156863,-90.31,-21.86,30.81
2326.2,-88.52941176470588,-83.98039215686275,138.49019607843138,-25.49,-13.88,-17.31
2326.25,-305.01960784313724,276.01960784313724,39.509803921568626,83.91,18.98,3.33
2326.3,-116.0,-24.019607843137255,-261.5098039215686,-90.94,25.49,16.07
2326.35,290.4901960784314,139.50980392156862,-242.01960784313727,-48.34,-4.29,9.21
2326.4,283.98039215686276,63.01960784313726,224.50980392156862,-94.33,9.14,1.55
2326.45,194.49019607843138,-263.5098039215686,-295.0,-97.06,-4.67,13.52
2326.5,297.0,-296.5098039215686,150.0,-17.68,24.44,3.4
2326.55,6.470588235294118,-154.49019607843138,-83.49019607843137,-0.22,2.95,-26.06
2326.6,258.4901960784314,-45.0,-33.0,5.58,-10.97,-56.09
2326.65,313.0,13.490196078431373,-199.50980392156862,-3.79,-27.67,-83.32
2326.7,-161.01960784313727,-301.4901960784314,166.0,57.1,-42.75,-48.74
2326.75,-161.01960784313727,9.509803921568627,-172.0,47.16,2.46,6.52
2326.8,74.0,-171.01960784313727,-310.0,-92.17,-2.78,66.75
2326.85,-170.50980392156862,150.0,286.5098039215686,-243.5,75.5,53.21
2326.9,-263.52941176470586,308.01960784313724,-313.4901960784314,16.71,-0.47,32.52
2326.95,115.49019607843137,57.98039215686274,-261.5098039215686,120.56,-33.55,-7.51
2327.0,-27.50980392156863,-62.0,104.0,-133.71,8.27,-21.68
2327.05,-177.01960784313727,-209.47058823529412,-95.0,-19.19,-6.7,-34.39
2327.1,306.4901960784314,-198.50980392156862,27.0,-55.41,-3.97,17.26
2327.15,-3.019607843137255,-318.01960784313724,221.01960784313727,32.74,14.95,-14.51
2327.2,-130.01960784313727,-296.5098039215686,-110.0,59.76,-5.44,18.87
2327.25,-241.01960784313727,297.0,-141.0,-28.43,17.51,-12.44
2327.3,242.49019607843138,156.50980392156862,-187.0,57.14,3.02,11.8
2327.35,178.49019607843138,303.5098039215686,-169.50980392156862,2.15,0.18,-7.44
2327.4,242.49019607843138,270.5098039215686,43.0,-77.25,-24.41,-16.57
2327.45,-241.01960784313727,-258.0,166.0,-28.5,5.19,17.68
2327.5,226.49019607843138,-62.0,-49.0,-121.32,-18.11,37.04
2327.55,-43.509803921568626,-204.01960784313727,-203.0,-156.11,-8.42,16.07
2327.6,-289.01960784313724,276.01960784313724,-264.0,-43.62,-7.05,58.35
2327.65,102.47058823529412,74.50980392156863,178.50980392156862,-117.58,-36.21,70.53
2327.7,-120.52941176470588,270.5098039215686,-79.0,-131.85,-36.45,54.68
2327.75,194.49019607843138,-127.0,-141.0,-54.36,-14.3,33.78
2327.8,-195.0,-116.50980392156863,-80.0,-81.98,-5.62,23.07
2327.85,-84.0,-296.5098039215686,-276.5098039215686,-39.7,-8.84,22.51
2327.9,-154.50980392156862,-274.0,43.0,-70.39,-0.65,7.32
2327.95,-215.52941176470588,-252.49019607843138,163.50980392156862,49.33,-81.53,-23.54
2328.0,245.47058823529412,-187.49019607843138,21.019607843137255,114.78,-124.69,-27.49
2328.05,54.470588235294116,264.0,-40.98039215686274,216.32,-273.58,-96.41
2328.1,213.47058823529412,133.0,-267.4901960784314,254.64,-293.63,-235.95
2328.15,194.49019607843138,133.0,-258.01960784313724,-14.82,-154.19,-258.14
2328.2,-22.980392156862745,139.50980392156862,200.49019607843138,-207.49,54.19,-79.36
2328.25,81.50980392156863,-268.4901960784314,209.50980392156862,66.03,173.99,46.73
2328.3,265.0,303.5098039215686,175.01960784313727,217.85,-267.83,158.14
2328.35,-266.5098039215686,269.98039215686276,298.01960784313724,-314.3,186.0,158.14
2328.4,197.47058823529412,122.98039215686275,-67.49019607843137,64.03,-131.65,-38.59
2328.45,-206.0392156862745,-247.45098039215685,-81.03921568627452,142.54,-43.49,-170.54
2328.5,-286.03921568627453,-182.45098039215685,30.45098039215686,-115.89,66.68,-66.24
2328.55,-59.509803921568626,-111.0,-135.01960784313727,-10.12,54.01,12.47
2328.6,-66.01960784313725,-219.49019607843138,-110.0,-90.59,67.49,30.81
2328.65,-218.50980392156862,31.019607843137255,-295.0,46.71,19.26,18.42
2328.7,92.98039215686275,-94.0,166.0,5.51,20.76,3.75
2328.75,12.980392156862745,172.50980392156862,-92.50980392156863,-27.1,28.29,12.19
2328.8,-43.509803921568626,-45.0,-52.490196078431374,-28.71,4.28,-18.71
2328.85,-289.01960784313724,9.509803921568627,58.0,63.22,-38.1,-8.38
2328.9,-114.01960784313725,-84.50980392156863,-249.0,-114.84,17.12,-7.05
2328.95,258.4901960784314,41.509803921568626,9.509803921568627,-71.55,24.61,-3.1
2329.0,67.49019607843137,-274.0,120.0,61.65,-31.97,-31.38
2329.05,-209.01960784313727,264.0,227.0,-5.99,4.14,-19.23
2329.1,115.49019607843137,-29.0,-280.0,-29.69,-10.59,10.37
2329.15,178.49019607843138,-263.5098039215686,116.50980392156863,-49.25,-6.98,25.7
2329.2,306.4901960784314,258.4901960784314,267.01960784313724,-31.33,27.73,46.7
2329.25,-146.01960784313727,-214.50980392156862,-209.98039215686273,-33.61,4.77,-3.94
2329.3,-177.01960784313727,-231.50980392156862,190.01960784313727,97.81,-16.78,-24.76
2329.35,-34.01960784313726,-45.0,153.49019607843138,0.02,12.57,-73.03
2329.4,-289.01960784313724,259.01960784313724,-258.01960784313724,-83.07,-3.66,-27.32
2329.45,-209.01960784313727,227.01960784313727,-181.01960784313727,-247.15,-13.07,-23.89
2329.5,210.49019607843138,286.03921568627453,246.49019607843138,-227.89,-2.71,37.74
2329.55,-36.0,-214.98039215686273,-46.509803921568626,-88.7,6.69,34.62
2329.6,-183.52941176470588,-8.019607843137255,132.50980392156862,-180.12,21.92,74.59
2329.65,187.98039215686273,8.980392156862745,163.50980392156862,160.0,-55.98,111.1
2329.7,-215.52941176470588,24.980392156862745,-221.49019607843138,-20.59,-7.96,46.45
2329.75,265.0,275.54901960784315,221.01960784313727,92.31,-10.2,-59.87
2329.8,90.0,313.52941176470586,-107.50980392156863,89.9,-124.65,-201.06
2329.85,-50.01960784313726,-45.0,56.96078431372549,39.88,-275.75,-270.39
2329.9,140.98039215686273,122.98039215686275,76.49019607843137,43.87,279.97,277.03
2329.95,-209.01960784313727,90.50980392156863,-201.9607843137255,-136.96,-273.23,256.69
2330.0,161.50980392156862,-29.0,17.529411764705884,-86.84,243.92,246.68
2330.05,51.490196078431374,-187.01960784313727,-156.0,-148.3,157.64,224.21
2330.1,-75.50980392156863,-296.5098039215686,-203.0,-98.35,-242.88,-277.25
2330.15,-259.0,-209.0,72.96078431372548,-203.95,-67.11,-88.71
2330.2,233.0,-57.01960784313726,-175.49019607843138,-50.27,-91.58,93.77
2330.25,-77.49019607843137,-231.0392156862745,77.49019607843137,-103.19,93.63,25.28
2330.3,-243.0,-269.01960784313724,-160.49019607843138,-9.6,24.93,-63.96
2330.35,15.529411764705882,259.01960784313724,129.01960784313727,21.75,18.21,-95.22
2330.4,-283.4901960784314,139.50980392156862,-153.50980392156862,41.84,-27.35,53.21
2330.45,-20.0,-106.01960784313725,58.0,-10.86,70.78,-71.84
2330.5,216.01960784313727,123.50980392156863,316.5098039215686,21.82,-74.5,-92.66
2330.55,253.52941176470588,84.0,181.0,10.41,-123.74,-101.97
2330.6,216.01960784313727,254.50980392156862,-227.01960784313727,77.36,-63.4,6.41
2330.65,-188.49019607843138,-182.50980392156862,193.50980392156862,-82.36,60.91,-44.43
2330.7,272.5098039215686,-94.0,144.01960784313727,98.4,-18.43,-106.63
2330.75,104.01960784313725,25.50980392156863,304.0,57.21,-101.55,-129.38
2330.8,-260.98039215686276,177.49019607843138,-73.01960784313725,50.59,-15.7,23.49
2330.85,216.01960784313727,144.49019607843138,316.5098039215686,92.48,118.87,50.41
2330.9,145.50980392156862,112.01960784313725,94.52941176470588,-102.77,146.24,32.84
2330.95,247.01960784313727,52.0,-61.509803921568626,9.99,87.72,52.44
2331.0,-117.98039215686275,-23.49019607843137,-184.50980392156862,88.04,33.22,29.93
2331.05,-181.98039215686273,270.5098039215686,-92.50980392156863,-190.06,98.15,-46.43
2331.1,-54.98039215686274,308.01960784313724,43.0,47.37,190.97,97.45
2331.15,311.01960784313724,150.0,291.03921568627453,101.41,270.87,57.16
2331.2,58.0,62.490196078431374,-132.98039215686273,42.89,246.2,179.42
2331.25,2.5098039215686274,-236.01960784313727,-126.0,30.85,302.02,143.68
2331.3,41.01960784313726,199.0,-249.0,-49.74,-323.83,157.89
2331.35,120.01960784313725,-45.0,21.019607843137255,22.94,-282.81,182.01
2331.4,168.01960784313727,-274.0,-255.98039215686273,124.26,-204.17,221.38
2331.45,9.019607843137255,-296.5098039215686,316.5098039215686,-126.43,-193.63,300.52
2331.5,18.50980392156863,-192.0,-178.98039215686273,193.67,290.82,-291.25
2331.55,-43.509803921568626,150.0,175.01960784313727,-120.55,-171.97,78.9
2331.6,-6.549019607843137,-274.47058823529414,179.9607843137255,2.29,69.55,47.05
2331.65,104.01960784313725,199.52941176470588,-172.0,-30.63,76.27,-39.22
2331.7,314.98039215686276,178.01960784313727,43.0,62.56,-21.19,-84.23
2331.75,163.49019607843138,-285.4901960784314,166.0,160.0,103.89,-17.97
2331.8,313.0,303.5098039215686,-156.0,44.99,-31.55,-45.34
2331.85,210.49019607843138,145.01960784313727,-203.0,65.25,31.58,11.66
2331.9,42.0,264.0,89.0,22.77,4.03,21.39
2331.95,19.49019607843137,-252.49019607843138,12.0,22.0,16.25,16.18
2332.0,155.98039215686273,-165.50980392156862,86.50980392156863,84.89,21.25,32.21
2332.05,67.49019607843137,215.0,-233.0,72.96,-6.35,0.99
2332.1,203.98039215686273,270.5098039215686,304.0,-0.11,-19.02,-10.41
2332.15,51.490196078431374,-89.49019607843137,289.0,-43.41,-11.99,-21.93
2332.2,226.49019607843138,-56.490196078431374,-110.0,-54.33,22.79,-9.5
2332.25,83.49019607843137,-241.0,-295.0,46.67,0.53,-25.43
2332.3,274.4901960784314,133.0,58.0,97.07,-13.32,-5.44
2332.35,-98.01960784313725,258.4901960784314,-203.0,-4.84,-17.2,-10.94
2332.4,258.4901960784314,-192.0,-18.0,-33.26,20.48,-11.64
2332.45,4.490196078431373,264.0,-280.0,-49.29,-37.29,2.0
2332.5,210.49019607843138,62.490196078431374,-279.0,-66.33,42.01,60.35
2332.55,194.49019607843138,160.49019607843138,-301.98039215686276,-124.85,56.25,14.22
2332.6,-241.01960784313727,90.50980392156863,-193.98039215686273,115.1,-29.77,-23.96
2332.65,108.98039215686275,-2.5098039215686274,30.49019607843137,-14.26,4.87,-57.87
2332.7,-225.01960784313727,-56.490196078431374,-269.52941176470586,-121.32,1.23,-40.44
2332.75,-98.01960784313725,199.52941176470588,107.49019607843137,-101.68,-48.88,-31.66
2332.8,-273.01960784313724,-241.47058823529412,76.49019607843137,-266.32,-12.02,49.85
2332.85,58.0,182.52941176470588,-15.509803921568627,-88.03,-8.45,29.62
2332.9,44.98039215686274,-187.01960784313727,-249.0,-130.21,-12.48,52.19
2332.95,-120.52941176470588,8.980392156862745,-110.0,143.55,-33.72,87.44
2333.0,187.98039215686273,187.98039215686273,129.01960784313727,94.94,-0.23,51.7
2333.05,-107.50980392156863,-164.98039215686273,236.01960784313727,43.38,-34.07,-44.99
2333.1,58.0,-274.47058823529414,-273.01960784313724,20.84,-66.24,-213.69
2333.15,-139.50980392156862,-236.49019607843138,241.9607843137255,77.75,-310.4,-198.12
2333.2,277.47058823529414,134.47058823529412,-315.52941176470586,198.67,241.33,268.87
2333.25,274.4901960784314,9.509803921568627,1.5294117647058822,-229.89,-315.44,-316.52
2333.3,-20.0,-285.4901960784314,-198.47058823529412,18.01,311.08,261.56
2333.35,138.0,-187.01960784313727,-70.98039215686275,-104.83,254.03,-314.56
2333.4,281.0,133.0,-249.0,84.64,182.35,-228.6
2333.45,-215.52941176470588,177.49019607843138,-310.0,111.84,-189.51,-127.77
2333.5,-306.0,237.50980392156862,61.490196078431374,-80.54,-191.29,14.43
2333.55,-165.98039215686273,52.470588235294116,-83.49019607843137,-133.78,0.57,106.13
2333.6,-6.980392156862745,122.98039215686275,-64.0,6.32,41.52,-76.28
2333.65,311.01960784313724,319.03921568627453,175.01960784313727,-179.59,33.89,-31.62
2333.7,-86.98039215686275,-78.0,-203.0,-83.66,14.22,-52.97
2333.75,208.50980392156862,-45.0,-184.50980392156862,-61.36,65.53,-89.2
2333.8,-252.49019607843138,-154.49019607843138,-237.49019607843138,32.71,-78.0,-79.68
2333.85,-308.98039215686276,-62.0,92.49019607843137,-127.34,-76.6,-124.23
2333.9,-283.4901960784314,270.5098039215686,200.49019607843138,74.53,-62.67,-61.37
2333.95,136.01960784313727,232.0,-172.0,94.2,60.63,108.82
2334.0,-147.0,-127.52941176470588,-113.49019607843137,12.69,30.32,-4.46
2334.05,-165.98039215686273,172.50980392156862,-261.5098039215686,62.7,-62.81,-73.1
2334.1,285.52941176470586,303.5098039215686,107.49019607843137,41.25,-93.71,-66.9
2334.15,88.01960784313725,232.0,46.490196078431374,33.2,-53.92,-61.09
2334.2,65.50980392156863,-263.5098039215686,86.50980392156863,104.49,-33.55,-107.78
2334.25,295.01960784313724,-78.0,147.50980392156862,-45.47,-35.44,-105.61
2334.3,-165.98039215686273,243.01960784313727,-184.50980392156862,61.3,-32.57,59.23
2334.35,288.5098039215686,62.490196078431374,138.49019607843138,-240.53,67.91,116.31
2334.4,-108.49019607843137,57.98039215686274,-52.490196078431374,126.54,132.2,60.24
2334.45,41.01960784313726,308.01960784313724,-209.98039215686273,53.81,163.04,26.78
2334.5,9.019607843137255,84.0,193.50980392156862,-14.04,254.21,131.47
2334.55,-156.49019607843138,-57.01960784313726,239.50980392156862,98.93,193.42,195.27
2334.6,129.50980392156862,-285.01960784313724,-203.0,-144.8,196.32,179.0
2334.65,-308.98039215686276,144.49019607843138,-70.98039215686275,-5.68,204.79,186.73
2334.7,-124.49019607843137,227.01960784313727,129.01960784313727,130.6,250.75,92.51
2334.75,272.5098039215686,-285.4901960784314,24.50980392156863,93.92,-291.39,-11.99
2334.8,65.50980392156863,-72.49019607843137,319.0,73.24,-297.09,41.87
2334.85,247.01960784313727,275.4901960784314,-6.490196078431373,-109.84,-283.37,245.15
2334.9,-68.0,220.98039215686273,-255.98039215686273,-258.52,-195.94,-269.09
2334.95,27.0,226.49019607843138,-6.490196078431373,-84.48,146.1,84.71
2335.0,299.98039215686276,-290.0,-18.0,101.83,74.87,132.2
2335.05,-202.50980392156862,269.98039215686276,-209.98039215686273,168.61,19.54,60.66
2335.1,-68.0,-66.98039215686275,292.4901960784314,-8.51,147.32,65.63
2335.15,258.4901960784314,-18.50980392156863,239.50980392156862,61.02,-116.32,-59.45
2335.2,60.98039215686274,-203.9607843137255,-15.509803921568627,95.95,45.68,58.74
2335.25,54.470588235294116,276.01960784313724,-199.50980392156862,-2.81,67.66,-0.61
2335.3,28.980392156862745,145.01960784313727,227.0,79.15,2.77,16.63
2335.35,235.98039215686273,-274.0,86.50980392156863,-34.94,45.26,-0.33
2335.4,274.4901960784314,292.01960784313724,-258.01960784313724,82.79,19.5,57.69
2335.45,140.98039215686273,-285.01960784313724,-129.49019607843138,67.81,17.72,30.49
2335.5,108.98039215686275,-143.0,132.50980392156862,87.13,20.41,20.73
2335.55,210.49019607843138,-111.0,-310.0,24.73,-24.1,-13.49
2335.6,108.98039215686275,-258.0,15.490196078431373,-26.68,-32.67,-4.5
2335.65,-305.01960784313724,-78.0,104.0,-16.04,-28.93,-11.39
2335.7,258.4901960784314,-192.0,209.50980392156862,31.45,-3.1,-29.21
2335.75,67.49019607843137,123.50980392156863,24.50980392156863,48.28,13.03,-21.61
2335.8,210.49019607843138,101.0,-233.0,32.63,-4.25,-2.01
2335.85,306.4901960784314,95.49019607843137,-172.0,-15.03,2.77,6.2
2335.9,-320.01960784313724,281.0,-172.0,-23.15,18.28,-0.82
2335.95,19.49019607843137,248.0,-218.0,-89.12,-11.15,15.34
2336.0,-98.01960784313725,258.4901960784314,-52.490196078431374,-29.06,11.59,54.29
2336.05,115.49019607843137,150.0,-67.49019607843137,-45.4,51.39,-0.93
2336.1,-193.01960784313727,117.0,-290.47058823529414,83.67,-31.94,-32.11
2336.15,155.98039215686273,58.509803921568626,200.49019607843138,-1.9,-13.56,-75.48
2336.2,-98.01960784313725,58.509803921568626,234.98039215686273,-135.42,-7.54,-27.91
2336.25,-34.01960784313726,96.01960784313725,-119.01960784313725,-38.23,-60.08,-29.42
2336.3,-320.01960784313724,215.52941176470588,61.490196078431374,-228.67,-6.81,30.35
2336.35,58.0,166.52941176470588,-273.01960784313724,-161.95,16.49,-10.55
2336.4,274.4901960784314,68.0,304.0,-16.57,13.97,62.13
2336.45,203.98039215686273,8.980392156862745,-52.490196078431374,-111.66,27.52,81.84
2336.5,-98.01960784313725,144.49019607843138,82.01960784313725,221.15,-72.54,121.32
2336.55,203.98039215686273,-318.01960784313724,163.50980392156862,104.81,-34.81,56.67
2336.6,217.0,172.0392156862745,104.0,-14.5,41.2,-52.55
2336.65,-211.0,-127.47058823529412,-135.01960784313727,28.26,-68.23,-180.13
2336.7,-193.01960784313727,-258.0,118.96078431372548,159.27,306.04,-257.65
2336.75,-215.52941176470588,-8.019607843137255,-58.01960784313726,165.25,258.16,-243.55
2336.8,-225.01960784313727,-62.0,232.52941176470588,245.61,-240.4,-247.01
2336.85,34.509803921568626,63.01960784313726,94.52941176470588,73.58,256.1,271.57
2336.9,210.49019607843138,24.980392156862745,-317.98039215686276,-27.69,216.44,294.11
2336.95,-266.5098039215686,19.0,282.01960784313724,-64.23,286.79,-283.45
2337.0,42.0,-45.0,-83.49019607843137,138.76,-233.64,-216.42
2337.05,-68.0,-143.0,61.490196078431374,-105.08,-249.46,78.58
2337.1,-220.49019607843138,-280.03921568627453,138.49019607843138,-15.69,7.81,97.41
2337.15,113.50980392156863,150.47058823529412,-156.0,55.46,25.1,-89.93
2337.2,9.019607843137255,84.52941176470588,52.01960784313726,-150.12,22.83,20.9
2337.25,-48.470588235294116,-165.50980392156862,132.50980392156862,59.38,52.47,44.84
2337.3,-4.0,258.4901960784314,-279.0,14.79,29.79,-15.45
2337.35,-149.98039215686273,14.019607843137255,89.0,-89.57,-78.14,-81.78
2337.4,-276.98039215686276,-307.0,123.49019607843137,-9.81,-3.66,-19.58
2337.45,-36.0,-94.0,-110.0,80.73,-42.72,-13.53
2337.5,311.01960784313724,-307.0,12.0,-11.84,28.53,-45.55
2337.55,247.01960784313727,25.50980392156863,-292.5098039215686,65.99,-39.39,-22.84
2337.6,-117.98039215686275,-116.50980392156863,-3.0,16.05,-32.22,-59.34
2337.65,136.01960784313727,35.0,243.0,25.0,-25.81,-95.53
2337.7,-22.980392156862745,-312.5098039215686,224.50980392156862,18.64,-65.5,-144.99
2337.75,-133.98039215686273,84.0,243.0,-7.88,-70.58,-151.11
2337.8,-165.98039215686273,-143.0,89.0,-137.77,42.95,-124.97
2337.85,-204.49019607843138,-29.0,209.50980392156862,58.75,39.45,55.55
2337.9,-252.49019607843138,297.0,-33.0,3.48,27.45,36.48
2337.95,311.01960784313724,199.0,104.0,-99.44,109.59,62.59
2338.0,263.01960784313724,-225.0,-175.49019607843138,17.2,84.92,34.27
2338.05,279.01960784313724,199.0,-295.0,-31.3,136.37,128.28
2338.1,-54.98039215686274,-204.01960784313727,193.50980392156862,-30.88,191.95,191.04
2338.15,-197.98039215686273,-214.50980392156862,-178.98039215686273,19.23,244.27,16.53
2338.2,-27.50980392156863,-225.0,-261.5098039215686,-15.48,233.46,42.15
2338.25,-127.47058823529412,-149.50980392156862,215.49019607843138,87.27,165.28,70.5
2338.3,47.529411764705884,133.0,58.0,119.65,244.55,9.81
2338.35,-227.0,297.0,116.50980392156863,-57.86,-252.89,100.07
2338.4,-209.01960784313727,3.0,-310.0,-77.01,-159.54,227.96
2338.45,106.0,-111.0,309.52941176470586,-155.17,-112.12,-280.5
2338.5,57.01960784313726,-133.50980392156862,-117.98039215686275,211.94,-292.75,-270.95
2338.55,170.0,-192.0,301.5098039215686,301.5,-201.37,61.15
2338.6,272.94117647058823,-72.49019607843137,15.490196078431373,104.28,258.69,142.11
2338.65,145.50980392156862,-160.52941176470588,-249.0,-175.71,130.91,-30.54
2338.7,-75.50980392156863,-312.98039215686276,-310.0,3.38,232.86,20.31
2338.75,35.490196078431374,-220.01960784313727,306.03921568627453,234.62,9.14,-130.18
2338.8,235.98039215686273,292.01960784313724,263.52941176470586,205.08,57.83,4.31
2338.85,42.0,-219.49019607843138,282.01960784313724,143.16,-19.16,-30.47
2338.9,177.50980392156862,-1.9803921568627452,181.0,-49.43,-77.86,16.88
2338.95,72.01960784313725,-176.47058823529412,-273.01960784313724,-147.25,-209.98,144.84
2339.0,263.01960784313724,-225.0,-175.49019607843138,17.2,84.92,34.27
2339.05,279.01960784313724,199.0,-295.0,-31.3,136.37,128.28
2339.1,-54.98039215686274,-204.01960784313727,193.50980392156862,-30.88,191.95,191.04
2339.15,-197.98039215686273,-214.50980392156862,-178.98039215686273,19.23,244.27,16.53
2339.2,-27.50980392156863,-225.0,-261.5098039215686,-15.48,233.46,42.15
2339.25,-127.47058823529412,-149.50980392156862,215.49019607843138,87.27,165.28,70.5
2339.3,47.529411764705884,133.0,58.0,119.65,244.55,9.81
2339.35,-227.0,297.0,116.50980392156863,-57.86,-252.89,100.07
2339.4,-209.01960784313727,3.0,-310.0,-77.01,-159.54,227.96
2339.45,106.0,-111.0,309.52941176470586,-155.17,-112.12,-280.5
2339.5,57.01960784313726,-133.50980392156862,-117.98039215686275,211.94,-292.75,-270.95
2339.55,170.0,-192.0,301.5098039215686,301.5,-201.37,61.15
2339.6,272.94117647058823,-72.49019607843137,15.490196078431373,104.28,258.69,142.11
2339.65,145.50980392156862,-160.52941176470588,-249.0,-175.71,130.91,-30.54
2339.7,-75.50980392156863,-312.98039215686276,-310.0,3.38,232.86,20.31
2339.75,35.490196078431374,-220.01960784313727,306.03921568627453,234.62,9.14,-130.18
2339.8,235.98039215686273,292.01960784313724,263.52941176470586,205.08,57.83,4.31
2339.85,42.0,-219.49019607843138,282.01960784313724,143.16,-19.16,-30.47
2339.9,177.50980392156862,-1.9803921568627452,181.0,-49.43,-77.86,16.88
2339.95,72.01960784313725,-176.47058823529412,-273.01960784313724,-147.25,-209.98,144.84
2340.0,138.0,172.50980392156862,-144.49019607843138,65.29,42.57,5.54
2340.05,249.0,-78.0,24.50980392156863,62.7,38.93,-1.49
2340.1,58.0,237.50980392156862,-206.49019607843138,49.16,34.48,-3.13
2340.15,106.0,107.50980392156863,-113.49019607843137,22.66,23.56,4.7
2340.2,265.0,205.50980392156862,-98.49019607843137,48.35,2.49,7.36
2340.25,217.0,205.50980392156862,-52.490196078431374,-18.35,9.21,5.01
2340.3,170.0,-56.490196078431374,-113.49019607843137,22.28,4.28,-0.05
2340.35,186.0,156.50980392156862,-221.49019607843138,7.61,0.85,8.86
2340.4,186.0,41.509803921568626,-175.49019607843138,-7.67,-0.09,12.75
2340.45,217.0,90.50980392156863,-98.49019607843137,-11.24,1.2,11.0
2340.5,249.0,74.50980392156863,-160.49019607843138,-6.73,5.57,9.74
2340.55,186.0,107.50980392156863,-175.49019607843138,-55.1,15.93,8.93
2340.6,106.0,90.50980392156863,-129.49019607843138,-97.52,8.62,27.06
2340.65,-20.0,188.50980392156862,116.50980392156863,-149.42,-17.2,42.85
2340.7,-163.0,-307.0,239.50980392156862,-195.03,-67.95,8.62
2340.75,-195.0,-127.0,-310.0,-263.07,-109.15,-6.84
2340.8,-147.0,-62.0,270.5098039215686,-195.03,-144.64,-43.17
2340.85,-243.0,-312.5098039215686,24.50980392156863,-304.13,-167.56,-109.46
2340.9,208.50980392156862,-214.50980392156862,116.50980392156863,275.85,-191.15,-162.7
2340.95,49.509803921568626,177.49019607843138,132.50980392156862,-316.09,-207.74,-251.28
2341.0,247.01960784313727,57.98039215686274,178.50980392156862,59.45,-219.64,-293.25
2341.05,120.01960784313725,302.98039215686276,39.509803921568626,230.45,39.31,-44.47
2341.1,-133.98039215686273,-73.01960784313725,22.058823529411764,-243.32,-168.02,55.97
2341.15,240.50980392156862,101.47058823529412,147.50980392156862,-47.61,-78.73,68.64
2341.2,-299.4901960784314,-160.0,-169.50980392156862,-53.73,-63.82,8.13
2341.25,-13.490196078431373,-100.50980392156863,-307.5098039215686,46.92,-25.74,5.4
2341.3,65.50980392156863,144.49019607843138,289.0,-59.51,4.94,-0.3
2341.35,2.5098039215686274,-263.5098039215686,-295.0,27.11,-11.36,-0.47
2341.4,-156.49019607843138,46.490196078431374,-64.0,20.67,-19.62,-5.27
2341.45,-204.49019607843138,46.490196078431374,43.0,33.51,-28.79,-7.79
2341.5,-172.49019607843138,111.49019607843137,89.0,25.64,-33.23,-6.63
2341.55,-77.49019607843137,-35.509803921568626,73.0,49.4,-32.57,-9.29
2341.6,-45.490196078431374,30.49019607843137,73.0,40.44,-22.07,-7.82
2341.65,-172.49019607843138,-18.50980392156863,89.0,24.27,-10.41,-21.44
2341.7,-204.49019607843138,-67.50980392156863,89.0,49.54,-9.68,-11.43
2341.75,247.01960784313727,46.490196078431374,-64.0,32.6,-1.73,11.42
2341.8,9.019607843137255,-149.50980392156862,316.5098039215686,12.37,2.53,25.94
2341.85,88.01960784313725,-116.50980392156863,-203.0,4.18,-2.54,19.85
2341.9,-252.49019607843138,-280.5098039215686,-110.0,16.12,-3.55,6.97
2341.95,-93.49019607843137,-280.5098039215686,-156.0,37.85,-7.23,-2.85
2342.0,-29.49019607843137,-149.50980392156862,-310.0,33.65,-14.96,0.22
2342.05,-29.49019607843137,-51.509803921568626,-233.0,25.67,-18.57,9.28
2342.1,-140.49019607843138,-35.509803921568626,-187.0,-4.98,-23.47,5.43
2342.15,-156.49019607843138,-214.50980392156862,-49.0,-65.0,-11.99,14.88
2342.2,-45.490196078431374,-165.50980392156862,-187.0,-17.65,-18.88,41.9
2342.25,-61.490196078431374,-253.01960784313727,-310.0,-62.59,-3.2,82.71
2342.3,49.509803921568626,177.49019607843138,-203.0,40.65,6.41,138.5
2342.35,113.50980392156863,171.98039215686273,163.50980392156862,118.07,-35.96,185.54
2342.4,145.50980392156862,73.98039215686275,166.0,166.89,-59.59,218.69
2342.45,81.50980392156863,24.980392156862745,-261.5098039215686,134.59,-93.85,190.37
2342.5,65.50980392156863,-106.01960784313725,181.0,137.04,-67.57,203.32
2342.55,304.5098039215686,-138.01960784313727,-169.50980392156862,102.32,-65.15,213.47
2342.6,-211.0,-187.01960784313727,-218.0,131.55,-65.01,174.66
2342.65,224.50980392156862,46.490196078431374,-49.0,237.84,-95.53,97.38
2342.7,-211.0,-263.5098039215686,-233.0,303.57,-159.55,-15.45
2342.75,320.5098039215686,-143.0,43.0,58.68,-105.47,109.17
2342.8,193.50980392156862,205.50980392156862,258.0,16.01,-41.98,7.36
2342.85,249.0,-155.01960784313727,167.0392156862745,12.19,-4.57,-9.08
2342.9,-68.0,166.0,-144.49019607843138,17.24,-0.68,-38.41
2342.95,-227.0,52.0,298.01960784313724,12.44,-4.43,-52.17
2343.0,27.0,297.0,221.01960784313727,26.34,-3.48,-76.49
2343.05,-211.0,52.0,-117.98039215686275,17.83,-21.61,-144.85
2343.1,304.5098039215686,319.5098039215686,-67.49019607843137,-29.48,-26.48,-124.62
2343.15,34.509803921568626,30.49019607843137,98.01960784313725,15.38,-32.64,-114.82
2343.2,272.5098039215686,232.0,-236.49019607843138,-55.8,-16.99,-127.45
2343.25,256.5098039215686,281.0,-190.49019607843138,-73.4,14.29,-90.18
2343.3,145.50980392156862,-84.50980392156863,-313.4901960784314,-42.25,-15.63,-59.97
2343.35,-131.0,166.0,-113.49019607843137,-44.63,-24.76,-52.94
2343.4,-211.0,150.0,-83.49019607843137,-59.79,-36.28,-55.98
2343.45,-243.0,101.0,-52.490196078431374,-107.92,-46.85,-76.14
2343.5,208.50980392156862,84.0,-190.49019607843138,-121.6,-115.24,-134.1
2343.55,-13.490196078431373,205.50980392156862,-98.49019607843137,-158.52,-113.21,-259.96
2343.6,-172.49019607843138,41.509803921568626,9.509803921568627,-180.29,-149.12,-291.74
2343.65,184.01960784313727,270.5098039215686,-3.0,-174.73,-63.12,-229.16
2343.7,-127.47058823529412,-231.50980392156862,-313.4901960784314,-64.06,28.67,-175.26
2343.75,15.529411764705882,-318.01960784313724,-144.49019607843138,-45.54,27.1,-74.39
2343.8,263.01960784313724,79.49019607843137,-36.490196078431374,26.83,27.97,18.98
2343.85,-29.49019607843137,-51.509803921568626,193.50980392156862,27.63,52.68,46.17
2343.9,-188.49019607843138,-84.50980392156863,209.50980392156862,-25.25,78.02,65.88
2343.95,311.01960784313724,-231.50980392156862,-295.0,-103.08,82.82,97.48
2344.0,184.01960784313727,297.0,-295.0,-127.97,65.95,135.28
2344.05,216.01960784313727,-280.5098039215686,-233.0,-49.25,11.17,158.84
2344.1,-315.4901960784314,-231.50980392156862,-264.0,8.94,-19.13,146.34
2344.15,-315.4901960784314,313.0,-264.0,33.44,-35.82,103.99
2344.2,-220.49019607843138,215.0,286.5098039215686,38.17,-52.17,42.36
2344.25,-156.49019607843138,117.0,255.50980392156862,46.01,-56.86,-19.44
2344.3,-124.49019607843137,150.0,224.50980392156862,91.33,-49.4,-66.03
2344.35,-267.4901960784314,166.0,-21.49019607843137,43.42,-48.53,-135.4
2344.4,216.01960784313727,52.0,39.509803921568626,-41.76,-13.98,-147.89
2344.45,-117.98039215686275,52.0,39.509803921568626,33.62,-43.77,-116.57
2344.5,279.01960784313724,313.0,-221.49019607843138,59.94,-11.85,-84.86
2344.55,200.01960784313727,183.0,-129.49019607843138,-57.37,33.89,-67.5
2344.6,311.01960784313724,-94.0,132.50980392156862,-84.6,42.67,-52.73
2344.65,-188.49019607843138,68.0,116.50980392156863,-35.64,29.41,-37.33
2344.7,-45.490196078431374,166.0,101.50980392156863,8.17,13.69,-29.94
2344.75,-61.490196078431374,68.0,147.50980392156862,-20.9,9.63,-17.94
2344.8,-140.49019607843138,-62.0,239.50980392156862,5.48,-9.22,-18.39
2344.85,-61.490196078431374,-78.0,163.50980392156862,28.26,-18.11,-19.3
2344.9,-108.49019607843137,-78.0,147.50980392156862,14.23,-15.63,-16.01
2344.95,-140.49019607843138,-176.0,147.50980392156862,1.45,-13.11,-11.74
2345.0,-124.49019607843137,-176.0,132.50980392156862,11.18,-12.83,-5.93
2345.05,-172.49019607843138,-143.0,101.50980392156863,-4.1,-11.46,2.39
2345.1,-188.49019607843138,-176.0,86.50980392156863,-8.16,-14.72,6.2
2345.15,-172.49019607843138,-192.0,86.50980392156863,3.55,-18.99,5.54
2345.2,-172.49019607843138,-127.0,39.509803921568626,18.01,-21.23,9.35
2345.25,-156.49019607843138,-143.0,39.509803921568626,12.44,-17.87,17.47
2345.3,-172.49019607843138,-143.0,39.509803921568626,7.09,-14.68,20.69
2345.35,-188.49019607843138,-94.0,24.50980392156863,-17.4,2.95,31.96
2345.4,-188.49019607843138,-127.0,9.509803921568627,-22.65,7.64,40.85
2345.45,-124.49019607843137,-45.0,55.509803921568626,-12.5,0.5,47.15
2345.5,-77.49019607843137,68.0,39.509803921568626,-1.34,-5.97,61.01
2345.55,-93.49019607843137,101.0,24.50980392156863,2.5,-2.75,54.85
2345.6,200.01960784313727,264.0,-67.49019607843137,-56.6,30.95,106.51
2345.65,72.01960784313725,-133.50980392156862,-21.49019607843137,-57.03,-1.84,166.12
2345.7,-236.49019607843138,-133.50980392156862,270.5098039215686,-110.22,-63.79,176.16
2345.75,-93.49019607843137,-67.50980392156863,-279.0,-42.78,-102.5,141.51
2345.8,-77.49019607843137,128.49019607843138,12.0,42.86,-131.02,132.52
2345.85,-45.490196078431374,-286.01960784313724,-18.0,38.86,-115.06,126.11
2345.9,-188.49019607843138,193.49019607843138,119.0,-10.79,-90.77,108.47
2345.95,-172.49019607843138,-35.509803921568626,58.0,-64.9,-62.84,82.4
2346.0,-124.49019607843137,-84.50980392156863,12.0,-119.39,-36.87,50.69
2346.05,-108.49019607843137,-100.50980392156863,-64.0,-15.93,16.91,-9.78
2346.1,-108.49019607843137,62.490196078431374,-141.0,-154.85,42.01,0.99
2346.15,-156.49019607843138,248.0,239.50980392156862,-139.1,49.85,-29.1
2346.2,-45.490196078431374,307.4901960784314,166.0,-61.96,51.11,-33.72
2346.25,272.5098039215686,-122.01960784313725,320.0,-146.62,98.5,-32.85
2346.3,2.5098039215686274,111.49019607843137,-246.50980392156862,-100.28,72.63,24.75
2346.35,-45.490196078431374,209.49019607843138,-61.509803921568626,-124.75,58.88,64.41
2346.4,81.50980392156863,62.490196078431374,-92.50980392156863,-71.02,62.73,94.61
2346.45,-77.49019607843137,95.49019607843137,-230.50980392156862,-54.75,64.51,104.9
2346.5,-124.49019607843137,-84.50980392156863,-276.5098039215686,-63.81,72.77,90.34
2346.55,-13.490196078431373,-133.50980392156862,243.0,-39.24,80.19,82.4
2346.6,97.50980392156863,46.490196078431374,196.0,-19.47,94.16,61.19
2346.65,81.50980392156863,30.49019607843137,243.0,-33.99,100.21,40.82
2346.7,97.50980392156863,-18.50980392156863,320.0,-57.23,86.81,28.01
2346.75,161.50980392156862,62.490196078431374,273.0,-14.88,66.82,22.9
2346.8,304.5098039215686,275.4901960784314,-261.5098039215686,-7.36,42.11,15.37
2346.85,-259.0,275.4901960784314,-230.50980392156862,-18.45,31.26,-12.02
2346.9,-227.0,-318.01960784313724,-138.50980392156862,60.01,-10.24,-11.22
2346.95,-179.0,-187.01960784313727,61.490196078431374,52.13,-53.43,2.84
2347.0,-227.0,-302.01960784313724,30.49019607843137,96.72,-80.41,23.0
2347.05,-306.0,-253.01960784313727,-138.50980392156862,132.18,-96.72,36.9
2347.1,256.5098039215686,209.49019607843138,-46.509803921568626,108.62,-89.2,56.36
2347.15,224.50980392156862,177.49019607843138,-76.50980392156863,72.75,-65.85,70.15
2347.2,177.50980392156862,111.49019607843137,320.0,36.24,-44.43,66.54
2347.25,161.50980392156862,-35.509803921568626,-215.50980392156862,15.52,-27.7,48.76
2347.3,224.50980392156862,-67.50980392156863,227.0,20.67,-22.87,16.25
2347.35,256.5098039215686,-133.50980392156862,135.0,-24.96,-10.03,-14.44
2347.4,224.50980392156862,-116.50980392156863,58.0,8.56,3.44,-46.95
2347.45,129.50980392156862,160.49019607843138,-33.0,35.44,32.28,-76.25
2347.5,-29.49019607843137,-302.01960784313724,-203.0,50.1,47.82,-126.19
2347.55,-140.49019607843138,209.49019607843138,-95.0,46.25,59.19,-150.34
2347.6,-315.4901960784314,291.4901960784314,-79.0,4.46,48.94,-116.08
2347.65,-93.49019607843137,177.49019607843138,-95.0,-48.49,73.54,-62.56
2347.7,-236.49019607843138,258.4901960784314,-18.0,-107.32,94.58,-25.57
2347.75,-93.49019607843137,226.49019607843138,120.0,-98.57,90.94,-5.02
2347.8,193.50980392156862,226.49019607843138,166.0,-90.9,75.78,-0.79
2347.85,272.5098039215686,144.49019607843138,58.0,-42.43,49.01,12.5
2347.9,320.5098039215686,291.4901960784314,27.0,-33.57,23.74,12.99
2347.95,320.5098039215686,111.49019607843137,43.0,-19.29,3.89,24.93
2348.0,256.5098039215686,275.4901960784314,-3.0,-13.62,-13.21,33.99
2348.05,272.5098039215686,226.49019607843138,-3.0,-26.82,-18.67,39.07
2348.1,161.50980392156862,275.4901960784314,43.0,-34.9,-29.98,32.66
2348.15,177.50980392156862,-318.01960784313724,58.0,11.25,-44.15,5.57
2348.2,208.50980392156862,-171.01960784313727,58.0,32.01,-61.2,19.82
2348.25,113.50980392156863,-187.01960784313727,150.0,32.57,-80.76,33.61
2348.3,240.50980392156862,-318.01960784313724,150.0,71.21,-83.63,48.52
2348.35,272.5098039215686,-187.01960784313727,227.0,73.1,-81.78,70.25
2348.4,208.50980392156862,-220.01960784313727,-307.5098039215686,118.63,-75.23,87.26
2348.45,208.50980392156862,-302.01960784313724,243.0,215.93,-56.09,98.04
2348.5,256.5098039215686,-253.01960784313727,135.0,257.2,-33.76,100.46
2348.55,320.5098039215686,258.4901960784314,12.0,-327.43,-33.55,104.69
2348.6,-211.0,-286.01960784313724,-156.0,288.45,-21.79,94.96
2348.65,-179.0,128.49019607843138,239.50980392156862,202.35,-8.56,72.7
2348.7,-211.0,-133.50980392156862,24.50980392156863,138.83,-8.87,45.4
2348.75,-243.0,-263.5098039215686,-98.49019607843137,86.08,-24.34,9.21
2348.8,-275.0,264.0,-144.49019607843138,8.55,-33.44,-47.65
2348.85,240.50980392156862,133.0,-67.49019607843137,-33.5,-37.61,-59.8
2348.9,256.5098039215686,215.0,-175.49019607843138,-1.03,-45.76,-52.97
2348.95,320.5098039215686,183.0,-267.4901960784314,-55.1,-41.98,-76.18
2349.0,193.50980392156862,150.0,-175.49019607843138,-86.42,-44.43,-104.6
2349.05,240.50980392156862,84.0,-21.49019607843137,-76.27,-55.67,-130.71
2349.1,-290.0,101.0,-67.49019607843137,-110.01,-58.29,-176.03
2349.15,240.50980392156862,117.0,9.509803921568627,-142.21,-64.8,-219.19
2349.2,145.50980392156862,150.0,147.50980392156862,-192.09,-61.44,-256.74
2349.25,-93.49019607843137,232.0,116.50980392156863,-139.31,-56.89,-271.23
2349.3,-315.4901960784314,264.0,147.50980392156862,-80.12,-76.39,-263.32
2349.35,152.01960784313727,-198.50980392156862,-21.49019607843137,-12.92,-81.81,-218.49
2349.4,-38.98039215686274,-296.5098039215686,-98.49019607843137,-0.15,-86.01,-150.55
2349.45,9.019607843137255,199.0,-52.490196078431374,-4.42,-63.05,-98.19
2349.5,-149.98039215686273,297.0,-175.49019607843138,-27.9,-5.69,-19.69
2349.55,57.01960784313726,-198.50980392156862,-144.49019607843138,61.69,-10.59,52.96
2349.6,2.5098039215686274,-296.5098039215686,-21.49019607843137,102.15,28.64,105.53
2349.65,-124.49019607843137,-247.50980392156862,9.509803921568627,198.19,71.34,140.08
2349.7,-315.4901960784314,-133.50980392156862,39.509803921568626,197.45,115.72,158.98
2349.75,72.01960784313725,-198.50980392156862,132.50980392156862,155.03,154.92,175.04
2349.8,-165.98039215686273,313.0,116.50980392156863,139.98,176.02,190.65
2349.85,-197.98039215686273,264.0,132.50980392156862,160.49,180.78,184.28
2349.9,9.019607843137255,264.0,39.509803921568626,174.21,157.12,152.54
2349.95,200.01960784313727,232.0,70.50980392156863,149.05,124.82,118.45
2350.0,-188.49019607843138,3.0,116.50980392156863,166.48,86.04,90.76
2350.05,2.5098039215686274,19.0,116.50980392156863,118.25,63.43,60.63
2350.1,49.509803921568626,-143.0,70.50980392156863,89.97,34.62,34.66
2350.15,145.50980392156862,-143.0,-52.490196078431374,-1.27,23.77,-13.56
2350.2,113.50980392156863,-274.0,-67.49019607843137,-8.97,13.8,-4.95
2350.25,161.50980392156862,-258.0,-252.49019607843138,21.44,6.41,-5.62
2350.3,304.5098039215686,-274.0,-206.49019607843138,-10.44,14.99,-17.59
2350.35,240.50980392156862,-290.0,-252.49019607843138,-0.64,9.21,-20.39
2350.4,-259.0,-307.0,-190.49019607843138,-10.16,10.79,-14.3
2350.45,-195.0,254.50980392156862,-221.49019607843138,-5.89,9.63,-16.64
2350.5,-131.0,303.5098039215686,-206.49019607843138,-10.54,13.13,-17.06
2350.55,-147.0,221.50980392156862,-236.49019607843138,-11.77,15.93,-12.02
2350.6,-147.0,286.5098039215686,-237.49019607843138,-4.17,16.95,1.13
2350.65,-116.0,270.5098039215686,-298.4901960784314,-17.23,18.24,14.25
2350.7,-52.0,270.5098039215686,-283.4901960784314,-11.21,20.69,26.08
2350.75,-4.0,-307.0,-298.4901960784314,-4.49,27.87,47.68
2350.8,27.0,-258.0,267.01960784313724,-47.51,22.93,35.81
2350.85,42.0,-258.0,236.01960784313727,-19.4,19.05,57.41
2350.9,-36.0,-29.0,129.01960784313727,-18.63,17.58,69.55
2350.95,-52.0,-45.0,236.01960784313727,-10.37,5.19,61.89
2351.0,-188.49019607843138,3.0,116.50980392156863,166.48,86.04,90.76
2351.05,2.5098039215686274,19.0,116.50980392156863,118.25,63.43,60.63
2351.1,49.509803921568626,-143.0,70.50980392156863,89.97,34.62,34.66
2351.15,145.50980392156862,-143.0,-52.490196078431374,-1.27,23.77,-13.56
2351.2,113.50980392156863,-274.0,-67.49019607843137,-8.97,13.8,-4.95
2351.25,161.50980392156862,-258.0,-252.49019607843138,21.44,6.41,-5.62
2351.3,304.5098039215686,-274.0,-206.49019607843138,-10.44,14.99,-17.59
2351.35,240.50980392156862,-290.0,-252.49019607843138,-0.64,9.21,-20.39
2351.4,-259.0,-307.0,-190.49019607843138,-10.16,10.79,-14.3
2351.45,-195.0,254.50980392156862,-221.49019607843138,-5.89,9.63,-16.64
2351.5,-131.0,303.5098039215686,-206.49019607843138,-10.54,13.13,-17.06
2351.55,-147.0,221.50980392156862,-236.49019607843138,-11.77,15.93,-12.02
2351.6,-147.0,286.5098039215686,-237.49019607843138,-4.17,16.95,1.13
2351.65,-116.0,270.5098039215686,-298.4901960784314,-17.23,18.24,14.25
2351.7,-52.0,270.5098039215686,-283.4901960784314,-11.21,20.69,26.08
2351.75,-4.0,-307.0,-298.4901960784314,-4.49,27.87,47.68
2351.8,27.0,-258.0,267.01960784313724,-47.51,22.93,35.81
2351.85,42.0,-258.0,236.01960784313727,-19.4,19.05,57.41
2351.9,-36.0,-29.0,129.01960784313727,-18.63,17.58,69.55
2351.95,-52.0,-45.0,236.01960784313727,-10.37,5.19,61.89
2352.0,-195.0,-160.0,-298.4901960784314,-10.4,4.7,-0.65
2352.05,-306.0,-127.0,313.01960784313724,-11.24,8.3,-1.24
2352.1,-211.0,-143.0,313.01960784313724,-11.35,12.36,12.75
2352.15,-211.0,-127.0,313.01960784313724,-6.41,12.99,29.34
2352.2,-195.0,-176.0,313.01960784313724,6.7,15.37,43.2
2352.25,-116.0,-78.0,267.01960784313724,-1.44,26.22,63.15
2352.3,-179.0,-143.0,267.01960784313724,-61.29,24.93,11.84
2352.35,-259.0,-127.0,-283.4901960784314,-141.2,35.22,-2.57
2352.4,-290.0,-111.0,-298.4901960784314,-198.71,42.18,-36.8
2352.45,-306.0,68.0,-98.49019607843137,313.08,59.16,-50.45
2352.5,-306.0,19.0,101.50980392156863,222.26,76.13,-73.94
2352.55,-227.0,-214.50980392156862,163.50980392156862,302.94,108.26,-74.6
2352.6,-131.0,-236.01960784313727,-126.0,-190.97,86.0,-4.39
2352.65,138.0,-258.52941176470586,-64.0,-217.18,68.68,29.02
2352.7,122.0,-40.01960784313726,166.0,-77.95,44.49,67.49
2352.75,106.0,106.98039215686275,-64.0,-71.55,10.26,62.13
2352.8,42.0,-269.01960784313724,289.0,-32.28,0.22,59.26
2352.85,-4.0,-318.01960784313724,320.0,-11.63,10.19,48.48
2352.9,11.0,275.4901960784314,289.0,-8.9,18.31,34.34
2352.95,-52.0,193.49019607843138,-230.50980392156862,10.1,27.69,30.42
2353.0,27.0,258.4901960784314,-307.5098039215686,19.13,27.66,28.18
2353.05,58.0,193.49019607843138,258.0,37.12,15.27,24.4
2353.1,138.0,193.49019607843138,212.0,42.47,7.08,7.57
2353.15,154.0,177.49019607843138,273.0,15.24,15.34,-11.36
2353.2,122.0,128.49019607843138,196.0,35.86,16.25,-27.63
2353.25,58.0,226.49019607843138,120.0,52.38,15.72,-58.19
2353.3,11.0,144.49019607843138,12.0,45.17,21.15,-69.14
2353.35,-36.0,209.49019607843138,135.0,-25.28,33.61,-95.18
2353.4,-36.0,79.49019607843137,166.0,51.4,23.21,-95.53
2353.45,-52.0,-302.01960784313724,181.0,91.51,36.37,-110.86
2353.5,-179.0,193.49019607843138,-79.0,148.59,22.34,-130.43
2353.55,-195.0,258.4901960784314,-79.0,136.06,18.03,-148.7
2353.6,304.5098039215686,-2.5098039215686274,-249.0,190.49,3.05,-140.89
2353.65,65.50980392156863,-286.01960784313724,-172.0,213.83,-16.92,-143.52
2353.7,-29.49019607843137,-35.509803921568626,163.50980392156862,120.49,-33.16,-140.3
2353.75,-188.49019607843138,-116.50980392156863,209.50980392156862,26.86,-40.76,-128.36
2353.8,-283.4901960784314,-231.50980392156862,86.50980392156863,-15.76,-42.75,-121.33
2353.85,-283.4901960784314,313.0,101.50980392156863,-12.01,-33.3,-109.57
2353.9,-283.4901960784314,-296.5098039215686,24.50980392156863,-5.99,-22.91,-97.74
2353.95,-283.4901960784314,-312.5098039215686,24.50980392156863,-5.33,-10.48,-77.44
2354.0,-315.4901960784314,297.0,86.50980392156863,-34.87,-1.59,-40.3
2354.05,-267.4901960784314,183.0,178.50980392156862,-32.17,5.92,-8.8
2354.1,-299.4901960784314,264.0,147.50980392156862,-37.67,16.67,13.1
2354.15,-252.49019607843138,232.0,147.50980392156862,-36.06,18.0,29.06
2354.2,-220.49019607843138,248.0,162.50980392156862,-28.78,17.65,37.0
2354.25,-236.49019607843138,232.0,209.50980392156862,-13.94,11.28,36.76
2354.3,-156.49019607843138,183.0,132.50980392156862,-6.73,9.95,36.48
2354.35,-188.49019607843138,215.0,178.50980392156862,2.78,3.02,33.75
2354.4,-236.49019607843138,199.0,239.50980392156862,-2.91,-11.5,36.9
2354.45,-188.49019607843138,215.0,209.50980392156862,28.93,-24.87,60.94
2354.5,-252.49019607843138,-214.50980392156862,101.50980392156863,17.76,-42.19,113.23
2354.55,-299.4901960784314,-231.50980392156862,163.50980392156862,100.47,-47.2,156.49
2354.6,263.01960784313724,95.49019607843137,-67.49019607843137,129.45,-32.85,176.86
2354.65,311.01960784313724,111.49019607843137,-67.49019607843137,143.45,13.48,176.58
2354.7,295.01960784313724,144.49019607843138,55.509803921568626,214.04,44.88,161.71
2354.75,-140.49019607843138,209.49019607843138,-21.49019607843137,268.99,85.86,139.55
2354.8,-108.49019607843137,46.490196078431374,39.509803921568626,249.67,101.51,96.68
2354.85,18.50980392156863,-100.50980392156863,-21.49019607843137,221.92,98.15,74.8
2354.9,161.50980392156862,215.0,39.509803921568626,167.87,69.59,53.1
2354.95,240.50980392156862,199.0,55.509803921568626,132.46,44.56,37.11
2355.0,-306.0,-45.0,-144.49019607843138,93.54,27.45,32.31
2355.05,-227.0,-209.0,-98.49019607843137,49.26,11.98,24.05
2355.1,-195.0,-241.0,-160.49019607843138,23.57,5.75,14.99
2355.15,-147.0,-290.0,-206.49019607843138,11.22,0.67,6.48
2355.2,-131.0,-290.0,-221.49019607843138,-6.83,-5.79,-2.82
2355.25,-116.0,-307.0,-221.49019607843138,-37.42,-12.2,-18.39
2355.3,-147.0,303.5098039215686,-175.49019607843138,-136.51,-24.03,-44.08
2355.35,-179.0,286.5098039215686,-83.49019607843137,-224.6,-45.34,-72.75
2355.4,-211.0,303.5098039215686,86.50980392156863,-202.45,-56.26,-94.66
2355.45,304.5098039215686,-62.0,9.509803921568627,-100.7,-63.23,-136.13
2355.5,97.50980392156863,281.0,-52.490196078431374,-92.69,-82.58,-158.36
2355.55,97.50980392156863,183.0,-98.49019607843137,-118.48,-101.48,-189.68
2355.6,-93.49019607843137,297.0,-6.490196078431373,-148.93,-105.37,-209.91
2355.65,-220.49019607843138,281.0,24.50980392156863,-164.86,-100.92,-223.98
2355.7,247.01960784313727,313.0,-36.490196078431374,-95.38,-93.5,-235.57
2355.75,120.01960784313725,-231.50980392156862,-52.490196078431374,-53.21,-81.11,-223.67
2355.8,41.01960784313726,-247.50980392156862,-113.49019607843137,-60.0,-59.87,-166.72
2355.85,88.01960784313725,264.0,-98.49019607843137,-72.39,-36.31,-106.45
2355.9,184.01960784313727,232.0,-21.49019607843137,-77.29,-14.05,-50.1
2355.95,-315.4901960784314,232.0,-21.49019607843137,-23.25,-7.05,-1.8
2356.0,-172.49019607843138,313.0,-6.490196078431373,-26.26,5.29,31.16
2356.05,-124.49019607843137,264.0,-36.490196078431374,-6.76,14.18,61.54
2356.1,-140.49019607843138,215.0,-36.490196078431374,-9.56,16.18,85.69
2356.15,-124.49019607843137,133.0,24.50980392156863,17.45,10.68,97.66
2356.2,-172.49019607843138,183.0,9.509803921568627,29.7,6.31,102.38
2356.25,-236.49019607843138,117.0,-21.49019607843137,46.99,1.69,106.51
2356.3,-252.49019607843138,117.0,-21.49019607843137,58.12,-4.64,105.6
2356.35,-236.49019607843138,101.0,55.509803921568626,42.65,-6.98,94.4
2356.4,-188.49019607843138,52.0,101.50980392156863,58.64,-26.34,56.32
2356.45,-140.49019607843138,133.0,86.50980392156863,64.52,-34.35,7.74
2356.5,295.01960784313724,199.0,55.509803921568626,100.85,-37.71,4.45
2356.55,-267.4901960784314,232.0,132.50980392156862,94.8,-36.14,2.49
2356.6,-220.49019607843138,150.0,163.50980392156862,117.55,-28.33,-2.47
2356.65,-315.4901960784314,313.0,147.50980392156862,95.71,-12.93,5.89
2356.7,311.01960784313724,215.0,270.5098039215686,74.04,-8.14,7.01
2356.75,-315.4901960784314,199.0,-279.0,37.29,0.04,11.24
2356.8,279.01960784313724,232.0,316.5098039215686,63.72,-1.35,21.92
2356.85,311.01960784313724,-312.5098039215686,316.5098039215686,105.05,-6.39,27.06
2356.9,279.01960784313724,-263.5098039215686,301.5098039215686,97.56,0.6,34.03
2356.95,231.01960784313727,313.0,301.5098039215686,84.16,2.91,53.7
2357.0,231.01960784313727,-296.5098039215686,-295.0,83.98,4.84,82.75
2357.05,247.01960784313727,313.0,-249.0,78.38,5.26,99.23
2357.1,231.01960784313727,281.0,-295.0,87.94,2.04,108.12
2357.15,216.01960784313727,281.0,-295.0,101.83,-3.94,108.93
2357.2,263.01960784313724,281.0,-264.0,79.01,-4.92,104.1
2357.25,311.01960784313724,183.0,-264.0,88.25,-13.32,84.64
2357.3,-252.49019607843138,183.0,-218.0,100.54,-17.73,58.77
2357.35,-299.4901960784314,264.0,-295.0,78.35,-20.98,31.37
2357.4,263.01960784313724,183.0,-233.0,13.14,-29.1,46.56
2357.45,247.01960784313727,215.0,-203.0,79.85,-55.04,61.33
2357.5,-220.49019607843138,-280.5098039215686,270.5098039215686,66.17,-44.19,72.07
2357.55,-283.4901960784314,101.0,255.50980392156862,63.58,-43.49,67.91
2357.6,-283.4901960784314,68.0,178.50980392156862,56.02,-44.08,63.64
2357.65,-315.4901960784314,150.0,55.509803921568626,53.53,-46.92,67.03
2357.7,-267.4901960784314,101.0,101.50980392156863,119.12,-57.17,62.06
2357.75,-236.49019607843138,232.0,-6.490196078431373,110.65,-58.19,45.09
2357.8,-236.49019607843138,84.0,55.509803921568626,124.86,-62.81,22.9
2357.85,-140.49019607843138,183.0,116.50980392156863,127.42,-66.76,-0.54
2357.9,-77.49019607843137,183.0,162.50980392156862,133.19,-73.41,-20.77
2357.95,-77.49019607843137,281.0,163.50980392156862,150.31,-65.85,-36.59
2358.0,-172.49019607843138,199.0,255.50980392156862,171.24,-60.39,-41.6
2358.05,-236.49019607843138,248.0,178.50980392156862,204.45,-58.68,-48.46
2358.1,247.01960784313727,232.0,224.50980392156862,107.43,22.09,7.81
2358.15,-276.98039215686276,-312.5098039215686,-67.49019607843137,178.38,26.47,49.25
2358.2,-315.4901960784314,281.0,193.50980392156862,132.42,66.16,62.38
2358.25,263.01960784313724,199.0,224.50980392156862,84.44,100.14,43.44
2358.3,136.01960784313727,215.0,239.50980392156862,55.95,107.46,22.97
2358.35,104.01960784313725,297.0,-295.0,16.29,108.3,23.46
2358.4,57.01960784313726,264.0,-172.0,22.21,84.5,57.69
2358.45,72.01960784313725,-280.5098039215686,-110.0,75.34,53.84,91.01
2358.5,168.01960784313727,-214.50980392156862,-95.0,101.97,23.67,119.22
2358.55,216.01960784313727,-312.5098039215686,-64.0,73.66,6.31,126.88
2358.6,247.01960784313727,264.0,-3.0,41.77,-7.86,129.33
2358.65,231.01960784313727,264.0,-18.0,-11.17,-25.53,131.08
2358.7,200.01960784313727,183.0,-49.0,-27.66,-54.97,127.27
2358.75,216.01960784313727,232.0,-95.0,17.73,-97.53,118.45
2358.8,-299.4901960784314,297.0,-233.0,97.81,-113.84,119.6
2358.85,-283.4901960784314,-280.5098039215686,-280.0,163.08,-122.69,111.76
2358.9,279.01960784313724,-296.5098039215686,255.50980392156862,140.02,-105.51,113.79
2358.95,-117.98039215686275,215.0,132.50980392156862,145.34,-73.45,162.55
2359.0,-54.98039215686274,68.0,-252.49019607843138,97.46,-35.23,182.95
2359.05,200.01960784313727,-160.0,-175.49019607843138,29.35,-23.08,127.69
2359.1,-299.4901960784314,-78.0,39.509803921568626,3.45,-39.04,62.17
2359.15,-61.490196078431374,-45.0,116.50980392156863,-8.65,-58.99,-0.09
2359.2,81.50980392156863,166.0,86.50980392156863,69.04,-73.8,-52.55
2359.25,129.50980392156862,248.0,116.50980392156863,122.55,-82.13,-106.77
2359.3,-77.49019607843137,199.0,178.50980392156862,134.52,-70.51,-144.95
2359.35,184.01960784313727,183.0,270.5098039215686,72.5,-59.87,-131.62
2359.4,136.01960784313727,117.0,239.50980392156862,12.06,-46.29,-80.62
2359.45,200.01960784313727,52.0,209.50980392156862,12.09,-33.79,-31.03
2359.5,247.01960784313727,150.0,239.50980392156862,17.9,-21.96,-16.29
2359.55,231.01960784313727,313.0,239.50980392156862,41.21,-11.25,-15.56
2359.6,263.01960784313724,313.0,224.50980392156862,46.08,3.23,-15.7
2359.65,295.01960784313724,-312.5098039215686,224.50980392156862,47.3,15.2,-6.25
2359.7,295.01960784313724,297.0,316.5098039215686,19.55,23.32,18.98
2359.75,279.01960784313724,215.0,-295.0,12.2,28.32,46.66
2359.8,279.01960784313724,264.0,301.5098039215686,32.39,35.01,77.81
2359.85,247.01960784313727,264.0,301.5098039215686,40.44,38.51,97.06
2359.9,231.01960784313727,264.0,301.5098039215686,30.68,37.6,98.78
2359.95,231.01960784313727,215.0,316.5098039215686,10.06,34.69,93.95
2360.0,279.01960784313724,199.0,316.5098039215686,19.55,25.63,84.29
2360.05,295.01960784313724,248.0,-279.0,2.75,15.72,73.72
2360.1,311.01960784313724,183.0,-279.0,6.18,4.49,58.42
2360.15,-299.4901960784314,183.0,-295.0,-16.18,-1.8,40.36
2360.2,-267.4901960784314,133.0,316.5098039215686,-32.17,-8.24,17.82
2360.25,-236.49019607843138,150.0,239.50980392156862,-26.08,-7.19,3.72
2360.3,-188.49019607843138,84.0,209.50980392156862,7.09,-20.11,-20.25
2360.35,-140.49019607843138,101.0,101.50980392156863,4.74,-11.22,-49.93
2360.4,311.01960784313724,84.0,-144.49019607843138,-6.41,-1.42,-60.53
2360.45,-299.4901960784314,19.0,-175.49019607843138,-20.73,6.1,-69.25
2360.5,-172.49019607843138,-13.0,-113.49019607843137,-8.06,3.82,-79.33
2360.55,-172.49019607843138,101.0,39.509803921568626,17.06,-5.55,-88.15
2360.6,-220.49019607843138,183.0,86.50980392156863,35.75,-0.44,-83.32
2360.65,247.01960784313727,248.0,39.509803921568626,36.8,9.35,-55.74
2360.7,311.01960784313724,215.0,101.50980392156863,14.68,5.92,-18.08
2360.75,-188.49019607843138,166.0,255.50980392156862,-29.65,8.23,-10.2
2360.8,-267.4901960784314,117.0,286.5098039215686,-68.92,10.93,-4.36
2360.85,-299.4901960784314,166.0,255.50980392156862,-49.36,6.52,8.48
2360.9,-220.49019607843138,199.0,193.50980392156862,-58.95,11.7,22.93
2360.95,-188.49019607843138,117.0,163.50980392156862,-38.19,1.27,24.51
2361.0,-172.49019607843138,183.0,163.50980392156862,-52.96,6.24,25.14
2361.05,-236.49019607843138,101.0,86.50980392156863,-18.66,1.06,23.46
2361.1,-204.49019607843138,166.0,39.509803921568626,-12.61,3.51,20.83
2361.15,-236.49019607843138,117.0,24.50980392156863,-9.0,3.4,7.78
2361.2,-236.49019607843138,101.0,55.509803921568626,-14.88,4.49,-3.66
2361.25,-236.49019607843138,117.0,55.509803921568626,-5.26,0.11,-14.09
2361.3,-220.49019607843138,133.0,70.50980392156863,2.33,-1.24,-22.35
2361.35,-236.49019607843138,117.0,86.50980392156863,8.91,-5.34,-28.89
2361.4,-236.49019607843138,166.0,132.50980392156862,11.99,-7.58,-31.24
2361.45,-204.49019607843138,150.0,147.50980392156862,5.9,-6.25,-29.38
2361.5,-252.49019607843138,166.0,163.50980392156862,6.49,-7.23,-24.17
2361.55,-252.49019607843138,183.0,193.50980392156862,-1.09,-4.57,-15.07
2361.6,-283.4901960784314,166.0,163.50980392156862,5.76,-4.39,-4.57
2361.65,-267.4901960784314,183.0,132.50980392156862,8.45,-1.45,11.49
2361.7,-252.49019607843138,166.0,116.50980392156863,9.92,2.53,19.89
2361.75,-252.49019607843138,183.0,101.50980392156863,6.32,5.89,25.07
2361.8,-252.49019607843138,133.0,101.50980392156863,1.59,7.85,27.62
2361.85,-267.4901960784314,133.0,132.50980392156862,5.58,8.69,30.28
2361.9,-252.49019607843138,150.0,132.50980392156862,11.15,6.41,30.6
2361.95,-252.49019607843138,117.0,147.50980392156862,6.04,5.89,26.82
2362.0,-267.4901960784314,117.0,116.50980392156863,10.9,2.14,21.18
2362.05,-236.49019607843138,166.0,116.50980392156863,11.71,-0.82,15.02
2362.1,-220.49019607843138,133.0,147.50980392156862,7.58,-3.27,7.25
2362.15,-236.49019607843138,133.0,147.50980392156862,8.84,-6.98,-1.14
2362.2,-236.49019607843138,133.0,178.50980392156862,2.92,-7.26,-6.95
2362.25,-236.49019607843138,117.0,147.50980392156862,2.54,-6.32,-9.68
2362.3,-252.49019607843138,133.0,116.50980392156863,-0.11,-4.95,-10.66
2362.35,-236.49019607843138,117.0,163.50980392156862,-12.12,-3.34,-13.95
2362.4,-236.49019607843138,117.0,163.50980392156862,-17.44,-3.13,-15.77
2362.45,-252.49019607843138,166.0,178.50980392156862,-14.53,-5.65,-14.19
2362.5,-252.49019607843138,183.0,178.50980392156862,-8.76,-8.17,-13.28
2362.55,-283.4901960784314,199.0,163.50980392156862,-7.08,-7.54,-10.62
2362.6,-283.4901960784314,166.0,162.50980392156862,0.12,-8.42,-6.63
2362.65,-267.4901960784314,166.0,147.50980392156862,-2.35,-4.71,-2.12
2362.7,-267.4901960784314,150.0,116.50980392156863,-3.33,-1.52,1.02
2362.75,-283.4901960784314,166.0,116.50980392156863,-2.46,0.39,3.58
2362.8,-267.4901960784314,166.0,162.50980392156862,-0.78,1.62,4.49
2362.85,-252.49019607843138,166.0,147.50980392156862,1.35,2.0,6.1
2362.9,-267.4901960784314,166.0,162.50980392156862,0.58,3.44,6.38
2362.95,-267.4901960784314,150.0,147.50980392156862,-2.46,4.63,6.34
2363.0,-267.4901960784314,150.0,163.50980392156862,-0.92,2.84,6.97
2363.05,-267.4901960784314,166.0,163.50980392156862,4.5,2.21,8.48
2363.1,-252.49019607843138,150.0,163.50980392156862,8.31,0.01,7.04
2363.15,-252.49019607843138,150.0,163.50980392156862,7.37,0.32,4.7
2363.2,-252.49019607843138,117.0,147.50980392156862,-0.67,1.69,1.37
2363.25,-252.49019607843138,117.0,178.50980392156862,3.2,0.04,-1.49
2363.3,-267.4901960784314,150.0,132.50980392156862,4.15,-0.61,-2.29
2363.35,-252.49019607843138,150.0,147.50980392156862,4.81,-0.44,-3.94
2363.4,-267.4901960784314,166.0,147.50980392156862,3.52,-0.96,-3.55
2363.45,-236.49019607843138,183.0,162.50980392156862,1.07,0.15,-1.42
2363.5,-252.49019607843138,133.0,147.50980392156862,4.85,-0.02,-0.4
2363.55,-252.49019607843138,150.0,132.50980392156862,7.16,0.85,1.51
2363.6,-236.49019607843138,133.0,132.50980392156862,1.14,2.0,2.91
2363.65,-252.49019607843138,150.0,163.50980392156862,1.7,2.18,3.72
2363.7,-252.49019607843138,183.0,163.50980392156862,-2.81,2.84,4.56
2363.75,-252.49019607843138,150.0,163.50980392156862,-10.09,3.09,3.89
2363.8,-252.49019607843138,150.0,193.50980392156862,-13.41,3.23,2.46
2363.85,-267.4901960784314,133.0,193.50980392156862,-10.4,-0.33,1.09
2363.9,-252.49019607843138,150.0,178.50980392156862,-4.38,-3.55,1.41
2363.95,-252.49019607843138,150.0,193.50980392156862,2.54,-4.57,-1.35
2364.0,-236.49019607843138,150.0,178.50980392156862,-8.62,-2.19,-3.76
2364.05,-252.49019607843138,117.0,163.50980392156862,-3.47,-2.99,-6.32
2364.1,-267.4901960784314,183.0,147.50980392156862,-0.5,-3.38,-5.09
2364.15,-252.49019607843138,166.0,162.50980392156862,1.21,-3.03,-5.06
2364.2,-252.49019607843138,166.0,147.50980392156862,-4.21,-0.37,-5.23
2364.25,-267.4901960784314,150.0,163.50980392156862,-2.07,-0.19,-3.69
2364.3,-252.49019607843138,166.0,147.50980392156862,0.3,-0.12,-3.06
2364.35,-267.4901960784314,166.0,163.50980392156862,2.12,0.5,-1.24
2364.4,-252.49019607843138,166.0,162.50980392156862,3.2,0.95,1.48
2364.45,-283.4901960784314,183.0,178.50980392156862,-1.79,2.49,4.49
2364.5,-299.4901960784314,117.0,147.50980392156862,4.88,1.09,6.13
2364.55,-267.4901960784314,183.0,178.50980392156862,2.96,1.58,5.71
2364.6,-252.49019607843138,150.0,162.50980392156862,1.73,2.07,5.47
2364.65,-283.4901960784314,183.0,163.50980392156862,2.36,2.21,4.31
2364.7,-252.49019607843138,166.0,147.50980392156862,6.49,0.71,3.79
2364.75,-283.4901960784314,150.0,163.50980392156862,3.83,0.32,1.44
2364.8,-236.49019607843138,133.0,147.50980392156862,7.75,1.06,1.23
2364.85,-252.49019607843138,150.0,163.50980392156862,0.33,2.04,0.67
2364.9,-236.49019607843138,150.0,178.50980392156862,2.64,1.55,0.43
2364.95,-252.49019607843138,150.0,163.50980392156862,3.55,0.18,1.83
2365.0,-236.49019607843138,166.0,163.50980392156862,3.76,-0.23,1.86
2365.05,-252.49019607843138,166.0,163.50980392156862,-1.83,1.23,1.69
2365.1,-252.49019607843138,150.0,178.50980392156862,-8.2,1.41,0.88
2365.15,-252.49019607843138,133.0,178.50980392156862,-12.26,0.39,-1.59
2365.2,-267.4901960784314,133.0,193.50980392156862,-10.68,-0.75,-2.15
2365.25,-267.4901960784314,183.0,163.50980392156862,-4.56,-3.69,-1.91
2365.3,-283.4901960784314,166.0,163.50980392156862,-4.35,-4.53,-2.26
2365.35,-267.4901960784314,150.0,193.50980392156862,-1.44,-4.88,-3.38
2365.4,-267.4901960784314,183.0,178.50980392156862,0.19,-4.74,-3.38
2365.45,-252.49019607843138,166.0,178.50980392156862,-1.93,-2.5,-3.48
2365.5,-267.4901960784314,150.0,163.50980392156862,-0.46,-0.96,-2.92
2365.55,-252.49019607843138,166.0,147.50980392156862,-0.43,-0.65,-0.86
2365.6,-252.49019607843138,150.0,132.50980392156862,1.49,1.2,-0.26
2365.65,-267.4901960784314,183.0,147.50980392156862,2.36,2.56,1.69
2365.7,-252.49019607843138,166.0,163.50980392156862,-1.2,3.47,3.4
2365.75,-283.4901960784314,166.0,178.50980392156862,2.96,2.56,4.28
2365.8,-283.4901960784314,166.0,163.50980392156862,4.46,2.35,5.85
2365.85,-299.4901960784314,166.0,193.50980392156862,3.55,1.93,3.33
2365.9,-267.4901960784314,150.0,163.50980392156862,2.68,1.86,2.63
2365.95,-267.4901960784314,150.0,163.50980392156862,4.04,0.81,3.05
2366.0,-267.4901960784314,166.0,163.50980392156862,4.95,0.32,1.37
2366.05,-283.4901960784314,166.0,178.50980392156862,6.04,0.64,-0.47
2366.1,-252.49019607843138,150.0,147.50980392156862,5.06,0.18,-0.12
2366.15,-236.49019607843138,166.0,163.50980392156862,1.49,1.34,-1.91
2366.2,-267.4901960784314,133.0,163.50980392156862,2.99,0.99,-0.65
2366.25,-252.49019607843138,166.0,147.50980392156862,5.02,0.08,1.13
2366.3,-252.49019607843138,183.0,147.50980392156862,1.52,1.23,2.07
2366.35,-252.49019607843138,150.0,178.50980392156862,2.01,1.62,2.95
2366.4,-252.49019607843138,166.0,163.50980392156862,1.84,0.92,3.3
2366.45,-220.49019607843138,166.0,163.50980392156862,0.72,0.36,2.67
2366.5,-267.4901960784314,150.0,147.50980392156862,5.02,-0.37,3.72
2366.55,-252.49019607843138,166.0,178.50980392156862,0.93,-0.86,1.86
2366.6,-267.4901960784314,150.0,178.50980392156862,2.19,-1.1,1.48
2366.65,-267.4901960784314,166.0,163.50980392156862,2.26,-0.96,1.34
2366.7,-236.49019607843138,150.0,132.50980392156862,-2.95,0.04,-0.12
2366.75,-267.4901960784314,133.0,147.50980392156862,-5.61,1.97,-1.31
2366.8,-236.49019607843138,133.0,193.50980392156862,-12.08,2.46,-3.17
2366.85,-267.4901960784314,133.0,163.50980392156862,-9.49,0.04,-3.55
2366.9,-283.4901960784314,166.0,193.50980392156862,-3.72,-1.91,-3.17
2366.95,-252.49019607843138,183.0,163.50980392156862,-6.17,-1.77,-2.47
2367.0,-252.49019607843138,133.0,193.50980392156862,-5.75,-2.5,-1.31
2367.05,-283.4901960784314,166.0,178.50980392156862,-4.03,-3.24,-0.47
2367.1,-252.49019607843138,183.0,147.50980392156862,3.34,-4.5,-0.26
2367.15,-252.49019607843138,183.0,147.50980392156862,-2.77,-1.91,-0.96
2367.2,-283.4901960784314,117.0,163.50980392156862,-1.02,-0.68,-1.14
2367.25,-252.49019607843138,183.0,163.50980392156862,-1.93,0.43,-0.05
2367.3,-252.49019607843138,133.0,147.50980392156862,-0.78,0.85,-1.31
2367.35,-252.49019607843138,166.0,163.50980392156862,-0.32,2.35,-0.47
2367.4,-283.4901960784314,166.0,178.50980392156862,-3.44,2.6,1.23
2367.45,-267.4901960784314,166.0,178.50980392156862,1.45,0.95,0.74
2367.5,-283.4901960784314,166.0,178.50980392156862,5.16,-0.12,1.76
2367.55,-267.4901960784314,150.0,147.50980392156862,1.91,0.95,1.76
2367.6,-236.49019607843138,150.0,193.50980392156862,3.03,1.79,1.97
2367.65,-252.49019607843138,150.0,162.50980392156862,3.52,2.35,2.42
2367.7,-267.4901960784314,133.0,147.50980392156862,5.3,1.09,1.55
2367.75,-252.49019607843138,150.0,163.50980392156862,3.38,1.55,1.2
2367.8,-236.49019607843138,133.0,163.50980392156862,6.67,0.53,2.39
2367.85,-252.49019607843138,166.0,147.50980392156862,3.06,1.06,1.9
2367.9,-283.4901960784314,150.0,178.50980392156862,3.24,0.67,1.86
2367.95,-267.4901960784314,166.0,163.50980392156862,3.94,0.64,3.3
2368.0,-252.49019607843138,166.0,163.50980392156862,0.19,1.16,3.05
2368.05,-252.49019607843138,150.0,163.50980392156862,-2.67,2.11,1.48
2368.1,-252.49019607843138,150.0,163.50980392156862,-7.25,2.49,0.95
2368.15,-236.49019607843138,166.0,178.50980392156862,-11.31,0.92,-0.86
2368.2,-236.49019607843138,117.0,193.50980392156862,-5.78,-1.94,-2.78
2368.25,-252.49019607843138,150.0,178.50980392156862,-2.91,-4.53,-0.02
2368.3,-267.4901960784314,183.0,163.50980392156862,-0.53,-6.32,1.83
2368.35,-252.49019607843138,166.0,209.50980392156862,-4.0,-5.06,0.11
2368.4,-267.4901960784314,166.0,178.50980392156862,1.03,-4.92,-1.14
2368.45,-267.4901960784314,150.0,147.50980392156862,-3.19,-3.1,-1.49
2368.5,-267.4901960784314,150.0,147.50980392156862,-1.02,-0.89,-1.73
2368.55,-267.4901960784314,150.0,132.50980392156862,-1.06,0.57,-1.35
2368.6,-267.4901960784314,166.0,147.50980392156862,-1.23,1.86,-1.07
2368.65,-267.4901960784314,166.0,147.50980392156862,2.05,2.28,-0.23
2368.7,-283.4901960784314,166.0,178.50980392156862,2.19,1.58,0.71
2368.75,-267.4901960784314,183.0,178.50980392156862,3.76,0.5,2.91
2368.8,-267.4901960784314,166.0,193.50980392156862,4.64,1.34,4.66
2368.85,-267.4901960784314,150.0,163.50980392156862,1.91,1.34,3.86
2368.9,-252.49019607843138,166.0,178.50980392156862,1.07,2.7,2.63
2368.95,-267.4901960784314,183.0,163.50980392156862,3.62,1.51,2.42
2369.0,-267.4901960784314,133.0,147.50980392156862,4.36,1.72,2.07
2369.05,-267.4901960784314,166.0,178.50980392156862,0.44,1.34,0.99
2369.1,-267.4901960784314,133.0,193.50980392156862,5.79,1.06,0.32
2369.15,-267.4901960784314,150.0,163.50980392156862,4.95,0.85,0.99
2369.2,-267.4901960784314,150.0,147.50980392156862,0.82,1.02,0.29
2369.25,-267.4901960784314,150.0,178.50980392156862,4.32,0.43,0.32
2369.3,-236.49019607843138,183.0,147.50980392156862,2.92,0.39,1.41
2369.35,-252.49019607843138,166.0,163.50980392156862,1.28,1.09,1.51
2369.4,-267.4901960784314,166.0,193.50980392156862,3.69,0.08,1.65
2369.45,-252.49019607843138,150.0,147.50980392156862,1.56,1.16,2.39
2369.5,-267.4901960784314,166.0,163.50980392156862,-0.71,0.29,1.9
2369.55,-236.49019607843138,133.0,147.50980392156862,1.8,1.41,1.76
2369.6,-252.49019607843138,166.0,162.50980392156862,-2.49,1.3,3.09
2369.65,-267.4901960784314,133.0,178.50980392156862,-3.51,0.36,1.41
2369.7,-236.49019607843138,150.0,193.50980392156862,-2.35,-1.49,-1.07
2369.75,-252.49019607843138,150.0,193.50980392156862,-4.63,-2.29,-1.45
2369.8,-267.4901960784314,150.0,193.50980392156862,-6.17,-2.5,-1.38
2369.85,-252.49019607843138,150.0,193.50980392156862,-6.45,-2.61,-4.22
2369.9,-252.49019607843138,166.0,178.50980392156862,-5.08,-2.64,-3.62
2369.95,-267.4901960784314,166.0,178.50980392156862,-4.59,-1.87,-1.03
2370.0,-267.4901960784314,166.0,163.50980392156862,-5.05,-0.89,-1.35
2370.05,-252.49019607843138,166.0,163.50980392156862,-0.39,0.43,-0.86
2370.1,-283.4901960784314,183.0,132.50980392156862,-11.73,2.04,-0.3
2370.15,-299.4901960784314,150.0,178.50980392156862,-5.85,-1.52,-3.24
2370.2,-267.4901960784314,166.0,209.50980392156862,8.14,-5.34,-6.6
2370.25,-252.49019607843138,199.0,163.50980392156862,2.19,-2.85,-4.85
2370.3,-267.4901960784314,150.0,178.50980392156862,0.3,1.48,-0.68
2370.35,-267.4901960784314,166.0,193.50980392156862,-3.23,4.56,3.75
2370.4,-283.4901960784314,166.0,132.50980392156862,1.07,4.45,6.03
2370.45,-252.49019607843138,166.0,163.50980392156862,-1.23,3.51,3.19
2370.5,-267.4901960784314,150.0,163.50980392156862,6.81,1.02,2.67
2370.55,-283.4901960784314,183.0,163.50980392156862,3.73,1.06,2.04
2370.6,-267.4901960784314,150.0,178.50980392156862,5.69,0.74,1.76
2370.65,-267.4901960784314,150.0,147.50980392156862,6.7,0.99,3.47
2370.7,-267.4901960784314,166.0,147.50980392156862,2.19,2.42,3.82
2370.75,-283.4901960784314,150.0,178.50980392156862,3.27,2.11,3.4
2370.8,-252.49019607843138,150.0,163.50980392156862,5.3,0.81,2.46
2370.85,-236.49019607843138,183.0,178.50980392156862,4.95,0.5,2.25
2370.9,-267.4901960784314,150.0,163.50980392156862,3.62,0.22,1.58
2370.95,-252.49019607843138,150.0,147.50980392156862,6.18,-0.02,2.46
2371.0,-252.49019607843138,150.0,163.50980392156862,2.26,0.18,1.44
2371.05,-267.4901960784314,150.0,163.50980392156862,3.13,0.36,1.09
2371.1,-283.4901960784314,166.0,147.50980392156862,0.16,1.62,1.58
2371.15,-236.49019607843138,133.0,178.50980392156862,-4.8,2.42,0.01
2371.2,-252.49019607843138,150.0,193.50980392156862,-7.29,1.93,-0.86
2371.25,-252.49019607843138,166.0,193.50980392156862,-3.23,0.08,-0.82
2371.3,-267.4901960784314,166.0,193.50980392156862,-7.25,-1.21,0.57
2371.35,-252.49019607843138,150.0,209.50980392156862,-1.72,-3.62,-1.94
2371.4,-236.49019607843138,166.0,178.50980392156862,-4.45,-3.94,-2.64
2371.45,-267.4901960784314,166.0,178.50980392156862,-6.9,-3.69,-0.89
2371.5,-283.4901960784314,133.0,209.50980392156862,-4.31,-5.37,-2.68
2371.55,-267.4901960784314,166.0,163.50980392156862,3.2,-5.62,-2.5
2371.6,-283.4901960784314,166.0,147.50980392156862,-0.22,-3.62,-3.03
2371.65,-267.4901960784314,150.0,132.50980392156862,1.8,-2.15,-3.73
2371.7,-267.4901960784314,166.0,147.50980392156862,1.59,0.95,-1.87
2371.75,-283.4901960784314,166.0,178.50980392156862,2.01,1.48,0.15
2371.8,-252.49019607843138,166.0,163.50980392156862,3.34,1.51,1.16
2371.85,-267.4901960784314,183.0,163.50980392156862,6.0,2.07,3.65
2371.9,-283.4901960784314,183.0,178.50980392156862,3.69,2.07,6.83
2371.95,-283.4901960784314,166.0,178.50980392156862,9.82,1.16,6.1
2372.0,-267.4901960784314,183.0,178.50980392156862,10.27,1.41,4.1
2372.05,-267.4901960784314,150.0,178.50980392156862,10.9,1.13,3.54
2372.1,-283.4901960784314,166.0,163.50980392156862,12.76,0.71,3.44
2372.15,-283.4901960784314,166.0,193.50980392156862,14.51,0.81,4.1
2372.2,-267.4901960784314,183.0,193.50980392156862,9.75,2.49,5.82
2372.25,-283.4901960784314,183.0,178.50980392156862,6.28,3.33,4.59
2372.3,-252.49019607843138,150.0,163.50980392156862,4.18,3.79,4.1
2372.35,-267.4901960784314,166.0,193.50980392156862,-5.29,3.75,3.26
2372.4,-267.4901960784314,133.0,209.50980392156862,-8.37,1.2,0.57
2372.45,-252.49019607843138,150.0,209.50980392156862,-10.68,-4.04,-4.25
2372.5,-252.49019607843138,133.0,178.50980392156862,-9.49,-7.72,-3.2
2372.55,-283.4901960784314,117.0,178.50980392156862,0.58,-11.5,0.67
2372.6,-267.4901960784314,150.0,132.50980392156862,10.27,-10.97,1.13
2372.65,-236.49019607843138,133.0,86.50980392156863,8.31,-5.86,1.44
2372.7,-204.49019607843138,84.0,70.50980392156863,4.64,-3.66,0.36
2372.75,-204.49019607843138,68.0,55.509803921568626,18.11,-3.17,-1.49
2372.8,-204.49019607843138,150.0,70.50980392156863,13.98,0.18,-3.48
2372.85,-252.49019607843138,117.0,101.50980392156863,4.29,8.83,-2.22
2372.9,-283.4901960784314,150.0,132.50980392156862,-2.98,11.03,3.58
2372.95,-252.49019607843138,166.0,178.50980392156862,-12.57,12.12,14.18
2373.0,-267.4901960784314,166.0,193.50980392156862,-12.71,10.19,21.99
2373.05,-299.4901960784314,199.0,193.50980392156862,-1.16,5.43,27.03
2373.1,-252.49019607843138,183.0,147.50980392156862,3.13,1.65,21.85
2373.15,-236.49019607843138,133.0,147.50980392156862,3.45,1.72,12.4
2373.2,-252.49019607843138,150.0,132.50980392156862,3.8,2.42,11.14
2373.25,-267.4901960784314,150.0,163.50980392156862,-4.56,2.98,12.85
2373.3,-252.49019607843138,117.0,163.50980392156862,-0.71,-0.58,5.78
2373.35,-220.49019607843138,150.0,209.50980392156862,-1.97,-3.2,-6.11
2373.4,-204.49019607843138,166.0,209.50980392156862,3.03,-9.54,-20.07
2373.45,-188.49019607843138,166.0,270.5098039215686,-3.09,-10.97,-32.08
2373.5,-283.4901960784314,199.0,224.50980392156862,-9.56,-11.46,-34.88
2373.55,279.01960784313724,232.0,239.50980392156862,-22.65,-9.89,-25.85
2373.6,311.01960784313724,199.0,255.50980392156862,-12.19,-9.47,-12.34
2373.65,-283.4901960784314,248.0,209.50980392156862,-9.95,-6.56,-2.5
2373.7,-236.49019607843138,232.0,224.50980392156862,-24.82,-0.79,-6.84
2373.75,295.01960784313724,232.0,239.50980392156862,-19.75,-7.12,-1.66
2373.8,-299.4901960784314,232.0,224.50980392156862,9.29,-14.51,9.14
2373.85,-220.49019607843138,264.0,209.50980392156862,23.82,-10.73,12.26
2373.9,-252.49019607843138,232.0,193.50980392156862,-6.69,0.95,3.58
2373.95,-299.4901960784314,183.0,209.50980392156862,-13.87,2.11,1.02
2374.0,-315.4901960784314,183.0,209.50980392156862,5.41,-3.03,2.88
2374.05,-283.4901960784314,215.0,209.50980392156862,13.95,1.02,6.8
2374.1,311.01960784313724,264.0,193.50980392156862,12.72,3.37,12.47
2374.15,-315.4901960784314,199.0,224.50980392156862,-2.39,9.18,15.83
2374.2,311.01960784313724,183.0,255.50980392156862,-1.44,10.16,17.16
2374.25,311.01960784313724,199.0,209.50980392156862,7.86,9.6,16.74
2374.3,-299.4901960784314,215.0,209.50980392156862,6.95,9.18,11.14
2374.35,-252.49019607843138,183.0,239.50980392156862,2.82,9.0,-0.75
2374.4,-220.49019607843138,199.0,255.50980392156862,5.27,6.45,-17.03
2374.45,-220.49019607843138,199.0,224.50980392156862,4.57,2.18,-27.53
2374.5,-252.49019607843138,232.0,255.50980392156862,-1.23,0.11,-28.4
2374.55,311.01960784313724,232.0,239.50980392156862,3.17,-6.6,-11.81
2374.6,311.01960784313724,232.0,239.50980392156862,33.06,-18.43,6.73
2374.65,-267.4901960784314,264.0,209.50980392156862,47.65,-17.9,15.69
2374.7,-283.4901960784314,264.0,178.50980392156862,30.99,-11.5,18.56
2374.75,-267.4901960784314,150.0,193.50980392156862,5.83,-6.18,20.97
2374.8,-252.49019607843138,101.0,178.50980392156862,8.56,-3.73,22.97
2374.85,-236.49019607843138,150.0,147.50980392156862,16.82,-0.05,27.03
2374.9,-204.49019607843138,133.0,86.50980392156863,14.09,3.65,24.33
2374.95,-236.49019607843138,133.0,132.50980392156862,7.61,7.04,20.62
2375.0,-267.4901960784314,101.0,178.50980392156862,5.3,6.9,15.58
2375.05,-267.4901960784314,101.0,163.50980392156862,3.83,3.93,7.81
2375.1,-267.4901960784314,117.0,193.50980392156862,7.61,0.08,-0.05
2375.15,-252.49019607843138,117.0,178.50980392156862,16.12,-2.71,-8.28
2375.2,-236.49019607843138,150.0,162.50980392156862,13.77,-1.91,-13.07
2375.25,-252.49019607843138,101.0,178.50980392156862,6.88,0.78,-15.38
2375.3,-299.4901960784314,117.0,163.50980392156862,4.32,2.39,-13.63
2375.35,-283.4901960784314,150.0,163.50980392156862,-2.18,5.92,-13.77
2375.4,-267.4901960784314,150.0,163.50980392156862,-9.98,8.76,-11.53
2375.45,-252.49019607843138,150.0,209.50980392156862,-22.97,10.79,-8.87
2375.5,-267.4901960784314,150.0,209.50980392156862,-24.05,8.41,-5.9
2375.55,-252.49019607843138,166.0,193.50980392156862,-14.39,3.44,-3.27
2375.6,-267.4901960784314,183.0,209.50980392156862,-10.68,-0.47,-0.75
2375.65,-267.4901960784314,150.0,193.50980392156862,-7.36,-3.03,-1.7
2375.7,-236.49019607843138,166.0,209.50980392156862,-6.8,-4.46,-2.78
2375.75,-267.4901960784314,166.0,178.50980392156862,-2.7,-5.62,-1.45
2375.8,-252.49019607843138,166.0,162.50980392156862,2.01,-6.7,-1.45
2375.85,-267.4901960784314,166.0,147.50980392156862,0.61,-2.68,-1.63
2375.9,-267.4901960784314,150.0,116.50980392156863,-0.01,-1.14,-0.44
2375.95,-252.49019607843138,166.0,147.50980392156862,3.94,-0.51,-0.05
2376.0,-267.4901960784314,166.0,147.50980392156862,6.21,0.74,1.72
2376.05,-283.4901960784314,150.0,147.50980392156862,6.7,2.7,3.02
2376.1,-283.4901960784314,150.0,147.50980392156862,0.37,5.68,2.56
2376.15,-267.4901960784314,166.0,178.50980392156862,0.47,6.45,3.19
2376.2,-267.4901960784314,166.0,163.50980392156862,1.52,4.73,5.01
2376.25,-252.49019607843138,150.0,193.50980392156862,3.62,2.63,3.82
2376.3,-283.4901960784314,166.0,163.50980392156862,6.42,1.72,4.98
2376.35,-252.49019607843138,166.0,163.50980392156862,1.98,1.37,4.8
2376.4,-236.49019607843138,133.0,193.50980392156862,-1.44,1.97,3.75
2376.45,-252.49019607843138,150.0,163.50980392156862,-14.67,3.89,6.41
2376.5,-236.49019607843138,166.0,163.50980392156862,-77.22,4.14,25.63
2376.55,-204.49019607843138,166.0,224.50980392156862,-90.62,15.09,79.35
2376.6,-283.4901960784314,-280.5098039215686,101.50980392156863,85.14,6.45,151.94
2376.65,-299.4901960784314,307.4901960784314,-21.49019607843137,138.69,49.43,193.52
2376.7,311.01960784313724,128.49019607843138,-283.4901960784314,291.92,73.02,203.36
2376.75,-204.49019607843138,-236.01960784313727,-267.4901960784314,296.85,97.03,172.1
2376.8,-172.49019607843138,-35.509803921568626,-52.490196078431374,213.79,92.13,144.31
2376.85,-45.490196078431374,166.0,101.50980392156863,137.28,69.83,107.04
2376.9,97.50980392156863,68.0,9.509803921568627,106.24,49.39,85.72
2376.95,193.50980392156862,19.0,-21.49019607843137,73.69,36.23,67.35
2377.0,272.5098039215686,-45.0,-83.49019607843137,60.92,26.85,56.46
2377.05,-306.0,-45.0,-98.49019607843137,39.53,19.57,45.93
2377.1,-195.0,-127.0,-160.49019607843138,25.18,7.99,39.42
2377.15,-131.0,-94.0,-252.49019607843138,0.58,6.9,31.58
2377.2,-116.0,-176.0,-267.4901960784314,-2.39,0.08,21.88
2377.25,-147.0,-111.0,-252.49019607843138,-24.86,3.51,15.02
2377.3,-211.0,-160.0,-252.49019607843138,-38.09,-2.05,3.19
2377.35,-227.0,-111.0,-236.49019607843138,-67.45,-12.55,-15.17
2377.4,-227.0,-127.0,-252.49019607843138,-113.27,-34.28,-41.04
2377.45,-243.0,-143.0,-160.49019607843138,-175.08,-54.41,-77.23
2377.5,-259.0,-209.0,-83.49019607843137,-188.41,-51.99,-108.2
2377.55,240.50980392156862,-45.0,-6.490196078431373,-100.84,-54.51,-142.78
2377.6,177.50980392156862,297.0,-52.490196078431374,-66.09,-69.46,-171.1
2377.65,81.50980392156863,313.0,-36.490196078431374,-56.15,-93.54,-193.11
2377.7,-29.49019607843137,297.0,-67.49019607843137,-86.88,-107.12,-202.28
2377.75,-299.4901960784314,248.0,-67.49019607843137,-121.0,-99.87,-201.51
2377.8,184.01960784313727,166.0,-21.49019607843137,-91.74,-70.65,-168.72
2377.85,72.01960784313725,297.0,55.509803921568626,-35.95,-49.96,-106.77
2377.9,120.01960784313725,-263.5098039215686,-36.490196078431374,-26.61,-42.44,-62.74
2377.95,247.01960784313727,264.0,9.509803921568627,-50.02,-24.66,-35.3
2378.0,295.01960784313724,166.0,70.50980392156863,-51.21,-10.94,-21.09
2378.05,-283.4901960784314,248.0,101.50980392156863,-40.96,0.08,-5.79
2378.1,-236.49019607843138,297.0,101.50980392156863,-21.46,6.69,15.06
2378.15,-188.49019607843138,248.0,86.50980392156863,-20.48,14.43,35.85
2378.2,-267.4901960784314,215.0,55.509803921568626,-12.5,18.94,54.89
2378.25,-315.4901960784314,199.0,101.50980392156863,-15.65,25.63,69.66
2378.3,-315.4901960784314,133.0,101.50980392156863,-15.83,27.76,78.23
2378.35,-315.4901960784314,117.0,116.50980392156863,-8.23,24.82,74.77
2378.4,-315.4901960784314,117.0,116.50980392156863,-5.36,21.71,64.93
2378.45,-299.4901960784314,133.0,132.50980392156862,3.1,15.55,49.32
2378.5,-220.49019607843138,150.0,132.50980392156862,11.01,8.48,29.51
2378.55,-204.49019607843138,133.0,163.50980392156862,8.66,1.34,5.29
2378.6,-172.49019607843138,133.0,178.50980392156862,10.94,-4.53,-16.12
2378.65,-172.49019607843138,117.0,163.50980392156862,7.86,-10.62,-32.43
2378.7,-204.49019607843138,133.0,193.50980392156862,6.63,-15.91,-45.87
2378.75,-220.49019607843138,166.0,193.50980392156862,5.37,-19.27,-52.83
2378.8,-236.49019607843138,183.0,163.50980392156862,11.71,-20.67,-50.91
2378.85,-283.4901960784314,199.0,132.50980392156862,5.65,-17.94,-42.51
2378.9,-267.4901960784314,183.0,132.50980392156862,-4.66,-14.79,-31.9
2378.95,-283.4901960784314,183.0,147.50980392156862,-9.7,-9.54,-19.41
2379.0,-283.4901960784314,183.0,132.50980392156862,-8.23,-4.6,-7.72
2379.05,-252.49019607843138,215.0,101.50980392156863,-8.06,2.07,3.75
2379.1,-252.49019607843138,183.0,101.50980392156863,-8.65,6.69,11.28
2379.15,-252.49019607843138,183.0,101.50980392156863,-9.81,11.1,18.63
2379.2,-252.49019607843138,166.0,132.50980392156862,-11.45,13.17,24.79
2379.25,-267.4901960784314,150.0,132.50980392156862,-10.23,12.85,27.34
2379.3,-252.49019607843138,166.0,132.50980392156862,-4.84,12.54,26.75
2379.35,-267.4901960784314,166.0,132.50980392156862,-4.28,11.77,23.91
2379.4,-267.4901960784314,150.0,147.50980392156862,-1.72,7.99,18.28
2379.45,-252.49019607843138,133.0,147.50980392156862,0.96,5.4,10.93
2379.5,-236.49019607843138,133.0,116.50980392156863,5.02,1.86,1.83
2379.55,-188.49019607843138,150.0,147.50980392156862,4.18,-1.98,-8.56
2379.6,-220.49019607843138,166.0,147.50980392156862,9.71,-4.95,-14.09
2379.65,-220.49019607843138,166.0,147.50980392156862,6.95,-5.13,-16.64
2379.7,-252.49019607843138,150.0,132.50980392156862,7.96,-6.39,-17.87
2379.75,-236.49019607843138,166.0,147.50980392156862,4.32,-6.67,-17.8
2379.8,-220.49019607843138,183.0,132.50980392156862,5.65,-5.55,-14.72
2379.85,-236.49019607843138,183.0,147.50980392156862,3.66,-2.71,-10.06
2379.9,-267.4901960784314,166.0,116.50980392156863,0.82,-0.93,-5.23
2379.95,-252.49019607843138,183.0,132.50980392156862,-4.42,2.46,-0.47
2380.0,-252.49019607843138,166.0,116.50980392156863,-4.91,3.54,2.91
2380.05,-236.49019607843138,150.0,132.50980392156862,-10.93,4.52,6.76
2380.1,-252.49019607843138,166.0,132.50980392156862,-7.01,3.51,8.34
2380.15,-236.49019607843138,183.0,147.50980392156862,-10.26,2.21,10.37
2380.2,-267.4901960784314,150.0,163.50980392156862,-4.35,-0.86,11.52
2380.25,-236.49019607843138,166.0,132.50980392156862,-0.81,-3.87,9.42
2380.3,-236.49019607843138,166.0,147.50980392156862,1.98,-3.69,4.24
2380.35,-236.49019607843138,166.0,132.50980392156862,2.75,-4.46,1.02
2380.4,-252.49019607843138,133.0,132.50980392156862,-1.51,-2.89,-2.01
2380.45,-236.49019607843138,133.0,132.50980392156862,3.52,-3.31,-3.87
2380.5,-252.49019607843138,150.0,147.50980392156862,0.26,-1.56,-4.22
2380.55,-236.49019607843138,133.0,132.50980392156862,2.57,-1.91,-5.3
2380.6,-236.49019607843138,166.0,116.50980392156863,3.97,-1.49,-5.72
2380.65,-252.49019607843138,166.0,101.50980392156863,5.41,-1.07,-4.64
2380.7,-236.49019607843138,166.0,116.50980392156863,2.36,0.81,-2.64
2380.75,-220.49019607843138,166.0,147.50980392156862,-0.32,2.35,-1.45
2380.8,-252.49019607843138,166.0,132.50980392156862,3.24,2.56,1.97
2380.85,-252.49019607843138,166.0,147.50980392156862,0.96,3.72,4.14
2380.9,-252.49019607843138,166.0,147.50980392156862,0.23,3.89,4.73
2380.95,-267.4901960784314,166.0,132.50980392156862,1.03,3.26,6.13
2381.0,-236.49019607843138,166.0,132.50980392156862,2.71,2.28,6.17
2381.05,-236.49019607843138,166.0,147.50980392156862,1.35,2.0,5.43
2381.1,-252.49019607843138,150.0,163.50980392156862,4.85,0.22,4.52
2381.15,-283.4901960784314,166.0,147.50980392156862,2.33,0.88,4.03
2381.2,-236.49019607843138,133.0,132.50980392156862,1.38,0.64,2.6
2381.25,-267.4901960784314,117.0,147.50980392156862,3.31,0.01,-0.47
2381.3,-252.49019607843138,166.0,132.50980392156862,0.75,1.09,-1.0
2381.35,-204.49019607843138,166.0,147.50980392156862,-7.18,1.55,-2.4
2381.4,-252.49019607843138,150.0,162.50980392156862,-3.47,0.01,-2.01
2381.45,-236.49019607843138,183.0,162.50980392156862,-5.29,-1.21,-1.38
2381.5,-252.49019607843138,133.0,147.50980392156862,-4.0,-2.75,-2.26
2381.55,-236.49019607843138,183.0,163.50980392156862,-6.06,-3.66,-2.85
2381.6,-236.49019607843138,133.0,147.50980392156862,-3.05,-4.78,-2.57
2381.65,-252.49019607843138,166.0,147.50980392156862,-2.39,-4.67,-1.63
2381.7,-236.49019607843138,150.0,147.50980392156862,-2.21,-4.99,-1.1
2381.75,-252.49019607843138,166.0,132.50980392156862,1.0,-4.04,-0.72
2381.8,-252.49019607843138,166.0,116.50980392156863,1.38,-2.75,-0.58
2381.85,-236.49019607843138,166.0,116.50980392156863,-3.89,-0.72,-0.86
2381.9,-267.4901960784314,150.0,147.50980392156862,-1.34,0.22,-1.0
2381.95,-283.4901960784314,166.0,147.50980392156862,0.96,-0.51,-0.3
2382.0,-252.49019607843138,150.0,163.50980392156862,0.23,0.39,-0.16
2382.05,-236.49019607843138,150.0,147.50980392156862,3.38,-0.37,1.62
2382.1,-267.4901960784314,183.0,147.50980392156862,8.52,-1.56,3.37
2382.15,-252.49019607843138,166.0,147.50980392156862,8.77,-0.79,5.43
2382.2,-236.49019607843138,166.0,178.50980392156862,2.54,0.53,2.81
2382.25,-267.4901960784314,133.0,163.50980392156862,8.94,-0.86,3.89
2382.3,-267.4901960784314,133.0,162.50980392156862,7.16,-0.51,5.78
2382.35,-267.4901960784314,166.0,147.50980392156862,6.25,-0.47,4.24
2382.4,-267.4901960784314,166.0,163.50980392156862,5.41,0.6,3.26
2382.45,-236.49019607843138,166.0,147.50980392156862,3.9,0.99,3.19
2382.5,-252.49019607843138,150.0,163.50980392156862,6.0,0.36,3.23
2382.55,-283.4901960784314,166.0,147.50980392156862,6.95,-0.37,3.82
2382.6,-267.4901960784314,133.0,147.50980392156862,5.79,0.78,4.1
2382.65,-252.49019607843138,166.0,162.50980392156862,5.48,-0.3,4.52
2382.7,-252.49019607843138,150.0,163.50980392156862,5.69,-0.65,4.07
2382.75,-252.49019607843138,166.0,147.50980392156862,4.29,-2.22,4.42
2382.8,-236.49019607843138,166.0,163.50980392156862,-1.27,-1.66,3.54
2382.85,-252.49019607843138,133.0,178.50980392156862,4.43,-3.97,2.49
2382.9,-252.49019607843138,199.0,163.50980392156862,3.38,-5.06,3.19
2382.95,-267.4901960784314,166.0,178.50980392156862,1.63,-5.09,5.61
2383.0,-283.4901960784314,150.0,193.50980392156862,1.91,-4.81,7.5
2383.05,-283.4901960784314,150.0,163.50980392156862,3.34,-3.66,7.25
2383.1,-267.4901960784314,150.0,163.50980392156862,2.68,-2.4,6.62
2383.15,-267.4901960784314,166.0,147.50980392156862,-4.28,-0.44,4.77
2383.2,-283.4901960784314,117.0,178.50980392156862,2.54,-1.91,0.29
2383.25,-267.4901960784314,150.0,163.50980392156862,1.03,-1.45,-2.96
2383.3,-267.4901960784314,133.0,163.50980392156862,-1.55,-0.44,-5.9
2383.35,-267.4901960784314,150.0,178.50980392156862,-0.46,-1.66,-7.33
2383.4,-267.4901960784314,150.0,193.50980392156862,3.76,-2.57,-8.35
2383.45,-283.4901960784314,183.0,163.50980392156862,9.68,-1.87,-6.53
2383.5,-267.4901960784314,215.0,163.50980392156862,0.3,2.25,-1.1
2383.55,-267.4901960784314,133.0,163.50980392156862,-1.72,5.61,2.6
2383.6,-299.4901960784314,166.0,162.50980392156862,-9.98,8.44,3.75
2383.65,-252.49019607843138,166.0,163.50980392156862,-6.8,6.87,3.05
2383.7,-252.49019607843138,166.0,178.50980392156862,-5.5,5.47,2.28
2383.75,-267.4901960784314,166.0,163.50980392156862,-6.06,3.96,0.43
2383.8,-267.4901960784314,150.0,178.50980392156862,-4.63,2.7,-1.91
2383.85,-252.49019607843138,166.0,163.50980392156862,-2.35,0.6,-2.96
2383.9,-236.49019607843138,183.0,162.50980392156862,-0.57,-0.68,-3.31
2383.95,-252.49019607843138,166.0,178.50980392156862,-0.32,-0.75,-3.69
2384.0,-252.49019607843138,166.0,147.50980392156862,0.51,-0.65,-3.13
2384.05,-267.4901960784314,166.0,132.50980392156862,-2.56,1.55,-1.94
2384.1,-267.4901960784314,183.0,147.50980392156862,-5.82,2.88,-2.01
2384.15,-236.49019607843138,166.0,132.50980392156862,-11.63,4.73,-0.68
2384.2,-252.49019607843138,150.0,178.50980392156862,-14.08,4.21,-0.96
2384.25,-236.49019607843138,166.0,193.50980392156862,-17.3,2.07,-0.19
2384.3,-267.4901960784314,150.0,193.50980392156862,-12.29,-2.19,0.64
2384.35,-236.49019607843138,199.0,163.50980392156862,-10.79,-4.57,-0.33
2384.4,-252.49019607843138,166.0,163.50980392156862,-12.01,-4.11,-1.35
2384.45,-267.4901960784314,133.0,178.50980392156862,-9.49,-3.13,-1.77
2384.5,-252.49019607843138,150.0,132.50980392156862,-3.54,-3.03,-1.42
2384.55,-267.4901960784314,166.0,116.50980392156863,-4.1,-0.82,-1.94
2384.6,-267.4901960784314,150.0,132.50980392156862,-2.14,0.11,-4.25
2384.65,-252.49019607843138,166.0,132.50980392156862,-3.05,1.93,-3.69
2384.7,-220.49019607843138,166.0,163.50980392156862,-5.99,3.65,-1.8
2384.75,-267.4901960784314,150.0,147.50980392156862,-6.45,3.09,-2.12
2384.8,-236.49019607843138,166.0,163.50980392156862,-2.28,2.0,-1.94
2384.85,-220.49019607843138,199.0,163.50980392156862,-6.62,1.79,-0.72
2384.9,-267.4901960784314,150.0,193.50980392156862,-0.64,0.01,0.95
2384.95,-236.49019607843138,183.0,163.50980392156862,-4.1,0.39,2.39
2385.0,-252.49019607843138,166.0,163.50980392156862,-0.81,-1.66,3.16
2385.05,-236.49019607843138,183.0,178.50980392156862,3.1,-4.39,2.32
2385.1,-283.4901960784314,166.0,178.50980392156862,10.87,-7.37,3.12
2385.15,-267.4901960784314,183.0,193.50980392156862,23.4,-10.34,-0.89
2385.2,-236.49019607843138,183.0,209.50980392156862,13.35,-6.6,-15.91
2385.25,-315.4901960784314,215.0,193.50980392156862,1.94,-4.92,-19.72
2385.3,-315.4901960784314,199.0,224.50980392156862,6.91,-4.36,-14.68
2385.35,-267.4901960784314,232.0,224.50980392156862,0.82,1.3,-4.11
2385.4,-267.4901960784314,232.0,224.50980392156862,-4.24,3.12,1.86
2385.45,-299.4901960784314,199.0,239.50980392156862,-22.93,6.59,8.9
2385.5,-283.4901960784314,199.0,270.5098039215686,-25.66,3.96,15.83
2385.55,-283.4901960784314,215.0,239.50980392156862,-14.29,-1.45,22.79
2385.6,-267.4901960784314,199.0,286.5098039215686,-7.46,-4.08,21.32
2385.65,-267.4901960784314,215.0,224.50980392156862,-2.53,-5.3,11.63
2385.7,-236.49019607843138,199.0,255.50980392156862,-11.38,-6.07,3.58
2385.75,-299.4901960784314,166.0,239.50980392156862,-5.19,-7.75,2.28
2385.8,-299.4901960784314,199.0,209.50980392156862,-2.11,-7.75,2.39
2385.85,-315.4901960784314,183.0,224.50980392156862,-1.72,-6.39,-2.01
2385.9,-299.4901960784314,199.0,193.50980392156862,-4.35,-3.66,-7.65
2385.95,311.01960784313724,183.0,224.50980392156862,-3.16,-0.75,-9.85
2386.0,-283.4901960784314,183.0,209.50980392156862,-1.2,1.13,-9.15
2386.05,-283.4901960784314,183.0,209.50980392156862,-1.93,3.4,-8.63
2386.1,-283.4901960784314,215.0,193.50980392156862,-1.3,3.58,-8.52
2386.15,-267.4901960784314,183.0,209.50980392156862,2.47,3.37,-5.51
2386.2,-299.4901960784314,215.0,224.50980392156862,6.11,2.14,-1.07
2386.25,-283.4901960784314,232.0,193.50980392156862,4.57,2.7,1.55
2386.3,-299.4901960784314,199.0,224.50980392156862,3.62,2.11,3.54
2386.35,-252.49019607843138,232.0,209.50980392156862,7.16,0.53,6.52
2386.4,-252.49019607843138,199.0,239.50980392156862,7.26,-1.1,9.04
2386.45,-267.4901960784314,232.0,239.50980392156862,12.09,-3.8,10.75
2386.5,-267.4901960784314,215.0,224.50980392156862,14.75,-3.27,12.64
2386.55,-283.4901960784314,215.0,224.50980392156862,12.86,-3.2,12.92
2386.6,-283.4901960784314,199.0,209.50980392156862,13.11,-2.61,10.68
2386.65,-299.4901960784314,183.0,209.50980392156862,11.04,-1.63,9.21
2386.7,-283.4901960784314,199.0,209.50980392156862,5.13,0.11,6.2
2386.75,-315.4901960784314,166.0,239.50980392156862,5.55,0.99,2.32
2386.8,-299.4901960784314,199.0,224.50980392156862,2.22,1.97,-0.44
2386.85,-267.4901960784314,183.0,224.50980392156862,3.87,0.6,-2.57
2386.9,-267.4901960784314,183.0,255.50980392156862,2.05,-0.58,-4.85
2386.95,-283.4901960784314,199.0,255.50980392156862,0.54,-1.21,-6.18
2387.0,-283.4901960784314,199.0,255.50980392156862,-3.93,-1.42,-5.58
2387.05,-315.4901960784314,215.0,239.50980392156862,-7.95,-0.72,-3.52
2387.1,-299.4901960784314,183.0,239.50980392156862,-8.69,-3.13,-2.96
2387.15,-283.4901960784314,183.0,239.50980392156862,-2.49,-5.16,-2.12
2387.2,-267.4901960784314,215.0,224.50980392156862,-0.78,-6.11,-0.3
2387.25,-283.4901960784314,215.0,239.50980392156862,-4.52,-4.99,0.36
2387.3,-299.4901960784314,199.0,224.50980392156862,-1.37,-5.27,0.57
2387.35,-283.4901960784314,199.0,209.50980392156862,4.78,-4.85,-0.16
2387.4,-299.4901960784314,199.0,209.50980392156862,11.32,-1.98,-2.08
2387.45,-315.4901960784314,199.0,193.50980392156862,3.55,6.83,-4.36
2387.5,311.01960784313724,166.0,193.50980392156862,-3.89,15.41,-4.88
2387.55,311.01960784313724,166.0,224.50980392156862,-19.92,28.11,-2.64
2387.6,295.01960784313724,166.0,239.50980392156862,-30.6,32.94,0.6
2387.65,-299.4901960784314,150.0,255.50980392156862,-36.23,32.7,-2.22
2387.7,-299.4901960784314,150.0,270.5098039215686,-28.6,25.98,-8.56
2387.75,-267.4901960784314,183.0,301.5098039215686,-21.95,19.08,-16.5
2387.8,-267.4901960784314,199.0,286.5098039215686,-11.73,9.46,-24.2
2387.85,-252.49019607843138,232.0,286.5098039215686,-0.04,-0.37,-26.13
2387.9,-236.49019607843138,215.0,286.5098039215686,20.11,-8.56,-23.96
2387.95,-236.49019607843138,264.0,286.5098039215686,25.92,-7.4,-19.76
2388.0,-267.4901960784314,248.0,255.50980392156862,6.07,-1.98,-15.94
2388.05,311.01960784313724,199.0,270.5098039215686,-33.5,3.72,-5.83
2388.1,295.01960784313724,133.0,286.5098039215686,-64.02,8.51,8.16
2388.15,-315.4901960784314,166.0,224.50980392156862,-59.96,11.0,6.73
2388.2,-283.4901960784314,166.0,178.50980392156862,-67.07,15.72,0.95
2388.25,-299.4901960784314,117.0,101.50980392156863,-30.46,3.16,-4.85
2388.3,-220.49019607843138,150.0,9.509803921568627,26.09,-16.61,-16.5
2388.35,-188.49019607843138,183.0,-36.490196078431374,55.67,-22.73,-28.44
2388.4,279.01960784313724,199.0,-98.49019607843137,89.79,-31.31,-14.19
2388.45,-124.49019607843137,166.0,9.509803921568627,113.77,-32.22,-3.73
2388.5,-61.490196078431374,166.0,178.50980392156862,67.71,-19.58,-12.23
2388.55,-220.49019607843138,68.0,178.50980392156862,11.01,-8.84,-19.79
2388.6,-315.4901960784314,52.0,147.50980392156862,14.09,6.38,4.28
2388.65,-267.4901960784314,150.0,86.50980392156863,13.18,15.55,22.86
2388.7,-252.49019607843138,150.0,116.50980392156863,-11.56,26.05,34.76
2388.75,-299.4901960784314,84.0,132.50980392156862,-13.94,28.64,44.74
2388.8,311.01960784313724,101.0,132.50980392156862,-6.55,30.81,52.09
2388.85,-299.4901960784314,101.0,101.50980392156863,0.16,33.43,50.41
2388.9,-267.4901960784314,101.0,101.50980392156863,-14.99,33.29,40.47
2388.95,-236.49019607843138,52.0,193.50980392156862,-25.77,26.85,27.9
2389.0,-204.49019607843138,68.0,178.50980392156862,-15.09,15.41,13.97
2389.05,-188.49019607843138,101.0,178.50980392156862,-1.76,4.56,-2.47
2389.1,-204.49019607843138,133.0,132.50980392156862,0.86,-5.76,-18.36
2389.15,-220.49019607843138,101.0,147.50980392156862,-0.15,-11.6,-33.69
2389.2,-188.49019607843138,117.0,147.50980392156862,-3.72,-15.98,-46.5
2389.25,-188.49019607843138,133.0,147.50980392156862,-6.24,-19.02,-54.55
2389.3,-204.49019607843138,133.0,147.50980392156862,-6.17,-20.21,-53.88
2389.35,-252.49019607843138,133.0,147.50980392156862,-10.61,-19.02,-48.0
2389.4,-299.4901960784314,150.0,132.50980392156862,-13.38,-12.41,-40.51
2389.45,-315.4901960784314,183.0,132.50980392156862,-54.29,2.77,-34.74
2389.5,-299.4901960784314,52.0,116.50980392156863,-50.23,2.98,-27.14
2389.55,-252.49019607843138,183.0,116.50980392156863,-21.11,5.19,-7.4
2389.6,-236.49019607843138,199.0,70.50980392156863,8.63,4.0,10.72
2389.65,-252.49019607843138,248.0,55.509803921568626,14.4,2.63,21.22
2389.7,-267.4901960784314,183.0,147.50980392156862,5.51,6.69,27.97
2389.75,-252.49019607843138,133.0,147.50980392156862,9.57,4.84,32.14
2389.8,-252.49019607843138,166.0,132.50980392156862,8.84,5.57,36.3
2389.85,-267.4901960784314,150.0,132.50980392156862,13.77,3.16,39.31
2389.9,-236.49019607843138,133.0,147.50980392156862,16.64,-0.16,35.53
2389.95,-267.4901960784314,133.0,116.50980392156863,26.16,-1.49,30.7
2390.0,-267.4901960784314,133.0,132.50980392156862,26.58,-2.05,26.33
2390.05,-236.49019607843138,117.0,147.50980392156862,21.23,-1.94,18.45
2390.1,-267.4901960784314,101.0,163.50980392156862,20.18,-3.41,10.19
2390.15,-252.49019607843138,117.0,147.50980392156862,16.5,-3.55,4.21
2390.2,-267.4901960784314,117.0,147.50980392156862,12.2,-4.67,-2.12
2390.25,-267.4901960784314,101.0,147.50980392156862,15.03,-6.35,-5.97
2390.3,-267.4901960784314,117.0,132.50980392156862,13.35,-7.23,-8.84
2390.35,-236.49019607843138,133.0,147.50980392156862,8.17,-6.35,-11.46
2390.4,-236.49019607843138,133.0,132.50980392156862,8.1,-7.26,-11.22
2390.45,-252.49019607843138,150.0,116.50980392156863,5.93,-6.84,-10.2
2390.5,-236.49019607843138,117.0,132.50980392156862,6.53,-4.81,-8.59
2390.55,-252.49019607843138,150.0,132.50980392156862,-1.44,-0.65,-3.13
2390.6,-236.49019607843138,117.0,147.50980392156862,-8.69,3.51,0.36
2390.65,-267.4901960784314,101.0,147.50980392156862,-12.26,4.28,3.12
2390.7,-236.49019607843138,133.0,132.50980392156862,-12.82,5.61,4.38
2390.75,-252.49019607843138,117.0,163.50980392156862,-11.59,3.65,3.44
2390.8,-252.49019607843138,117.0,147.50980392156862,-11.66,2.39,2.91
2390.85,-252.49019607843138,117.0,132.50980392156862,-9.91,1.06,0.92
2390.9,-236.49019607843138,117.0,162.50980392156862,-9.28,-0.58,-1.03
2390.95,-252.49019607843138,117.0,163.50980392156862,-7.36,-1.21,-1.8
2391.0,-252.49019607843138,133.0,147.50980392156862,-5.05,-2.47,-4.95
2391.05,-267.4901960784314,101.0,147.50980392156862,-2.67,-2.89,-7.65
2391.1,-252.49019607843138,133.0,132.50980392156862,0.61,-2.12,-8.1
2391.15,-252.49019607843138,117.0,116.50980392156863,-3.82,-0.65,-8.03
2391.2,-252.49019607843138,117.0,147.50980392156862,-3.02,-0.47,-8.24
2391.25,-236.49019607843138,117.0,132.50980392156862,0.72,-1.87,-8.0
2391.3,-252.49019607843138,150.0,163.50980392156862,6.35,-3.52,-4.95
2391.35,-283.4901960784314,133.0,147.50980392156862,10.03,-1.8,-1.03
2391.4,-283.4901960784314,150.0,116.50980392156863,1.35,1.34,2.18
2391.45,-236.49019607843138,117.0,132.50980392156862,6.84,1.2,4.98
2391.5,-252.49019607843138,166.0,132.50980392156862,6.6,2.74,9.42
2391.55,-267.4901960784314,133.0,132.50980392156862,6.91,3.54,11.28
2391.6,-267.4901960784314,117.0,147.50980392156862,6.74,4.45,12.75
2391.65,-267.4901960784314,133.0,116.50980392156863,5.86,5.01,13.52
2391.7,-252.49019607843138,101.0,132.50980392156862,7.96,4.07,11.21
2391.75,-267.4901960784314,133.0,132.50980392156862,7.09,3.86,9.77
2391.8,-252.49019607843138,117.0,132.50980392156862,12.06,1.83,8.97
2391.85,-252.49019607843138,117.0,147.50980392156862,7.54,3.47,6.24
2391.9,-252.49019607843138,117.0,101.50980392156863,1.73,3.54,2.81
2391.95,-252.49019607843138,101.0,132.50980392156862,2.5,2.6,0.85
2392.0,-236.49019607843138,133.0,147.50980392156862,2.71,1.16,0.43
2392.05,-252.49019607843138,117.0,132.50980392156862,4.25,-1.14,-0.65
2392.1,-236.49019607843138,133.0,147.50980392156862,1.49,-2.19,-2.78
2392.15,-283.4901960784314,101.0,147.50980392156862,6.11,-3.31,-3.52
2392.2,-236.49019607843138,117.0,101.50980392156863,7.75,-4.57,-3.24
2392.25,-252.49019607843138,133.0,101.50980392156863,13.95,-3.38,0.57
2392.3,-267.4901960784314,150.0,116.50980392156863,32.08,-3.1,10.05
2392.35,-236.49019607843138,248.0,70.50980392156863,12.27,3.51,25.98
2392.4,-267.4901960784314,166.0,132.50980392156862,-15.58,10.26,51.63
2392.45,-267.4901960784314,199.0,116.50980392156863,-44.95,18.07,72.91
2392.5,-267.4901960784314,313.0,101.50980392156863,-81.98,10.05,115.96
2392.55,-236.49019607843138,-231.50980392156862,132.50980392156862,-66.54,-13.21,149.53
2392.6,-204.49019607843138,13.490196078431373,132.50980392156862,-82.29,-26.3,160.27
2392.65,-140.49019607843138,46.490196078431374,193.50980392156862,-104.1,-45.17,164.23
2392.7,-13.490196078431373,95.49019607843137,286.5098039215686,-124.36,-70.4,157.05
2392.75,65.50980392156863,95.49019607843137,-156.0,-113.69,-86.89,132.62
2392.8,129.50980392156862,258.4901960784314,-156.0,-39.84,-59.13,115.86
2392.85,145.50980392156862,307.4901960784314,-249.0,-49.04,-39.78,93.49
2392.9,193.50980392156862,144.49019607843138,-233.0,-35.74,-31.38,66.51
2392.95,113.50980392156863,193.49019607843138,-249.0,-75.82,-20.04,35.18
2393.0,193.50980392156862,79.49019607843137,-33.0,-23.14,-12.41,21.46
2393.05,-275.0,-318.01960784313724,89.0,-69.06,-3.13,7.29
2393.1,-100.0,-18.50980392156863,196.0,-71.83,0.95,13.38
2393.15,-84.0,-302.01960784313724,181.0,-82.82,-5.27,10.79
2393.2,-100.0,177.49019607843138,-276.5098039215686,-63.08,-6.77,1.2
2393.25,-100.0,193.49019607843138,320.0,-29.06,-3.69,1.55
2393.3,-163.0,275.4901960784314,212.0,-7.25,-10.45,-0.44
2393.35,-100.0,226.49019607843138,-246.50980392156862,4.99,-11.74,-2.19
2393.4,-84.0,193.49019607843138,-261.5098039215686,41.35,-7.44,-6.07
2393.45,-36.0,209.49019607843138,258.0,44.5,-13.39,-18.29
2393.5,-52.0,226.49019607843138,227.0,25.46,-8.98,8.27
2393.55,-163.0,-57.01960784313726,289.0,-18.42,-0.72,14.04
2393.6,-52.0,-318.01960784313724,181.0,-36.09,3.89,2.07
2393.65,-36.0,275.4901960784314,258.0,-23.74,7.29,9.07
2393.7,-68.0,258.4901960784314,258.0,-0.5,12.43,-5.13
2393.75,-84.0,177.49019607843138,227.0,17.38,-0.65,7.18
2393.8,-52.0,258.4901960784314,243.0,-1.23,10.89,0.71
2393.85,-259.0,-318.01960784313724,273.0,-29.58,17.58,-5.27
2393.9,-100.0,291.4901960784314,-261.5098039215686,-16.22,24.23,8.65
2393.95,-100.0,-318.01960784313724,227.0,-56.39,35.43,8.41
2394.0,-195.0,242.49019607843138,181.0,-21.53,19.89,-9.75
2394.05,-147.0,193.49019607843138,-246.50980392156862,-21.22,0.18,-25.36
2394.1,-52.0,128.49019607843138,-107.50980392156863,35.54,-27.67,-25.67
2394.15,-4.0,258.4901960784314,-61.509803921568626,0.02,-39.53,-24.55
2394.2,-4.0,160.49019607843138,-153.50980392156862,11.64,-42.33,-19.9
2394.25,-52.0,275.4901960784314,-169.50980392156862,-13.9,-40.34,-16.61
2394.3,-116.0,209.49019607843138,-215.50980392156862,-87.86,-8.73,-4.08
2394.35,-259.0,-286.01960784313724,320.0,7.02,3.19,9.81
2394.4,-306.0,291.4901960784314,289.0,5.97,16.28,-4.18
2394.45,-306.0,62.490196078431374,-307.5098039215686,32.29,26.61,-20.98
2394.5,272.5098039215686,209.49019607843138,-307.5098039215686,26.13,25.94,-32.46
2394.55,320.5098039215686,275.4901960784314,-138.50980392156862,130.32,18.42,-34.42
2394.6,-306.0,307.4901960784314,-276.5098039215686,204.35,-16.36,-1.56
2394.65,-163.0,-204.01960784313727,0.49019607843137253,268.54,-22.07,54.68
2394.7,-36.0,155.98039215686273,166.0,203.79,-14.33,77.57
2394.75,27.0,-236.01960784313727,73.0,120.17,-14.19,76.03
2394.8,58.0,177.49019607843138,-126.0,124.58,-25.11,47.47
2394.85,-20.0,160.49019607843138,-203.0,153.0,-43.52,12.57
2394.9,-68.0,30.49019607843137,-264.0,118.1,-69.0,3.82
2394.95,-179.0,30.49019607843137,286.5098039215686,-9.11,-59.24,0.08
2395.0,256.5098039215686,95.49019607843137,70.50980392156863,-13.06,-20.04,-9.54
2395.05,320.5098039215686,144.49019607843138,-113.49019607843137,-31.93,-17.31,-7.54
2395.1,-100.0,128.49019607843138,-21.49019607843137,6.7,-18.85,2.56
2395.15,-116.0,160.49019607843138,86.50980392156863,4.6,-17.59,6.69
2395.2,-131.0,177.49019607843138,39.509803921568626,-10.79,-9.89,-0.72
2395.25,-163.0,62.490196078431374,116.50980392156863,-10.23,-5.86,-0.93
2395.3,-163.0,177.49019607843138,86.50980392156863,-14.43,-6.74,8.93
2395.35,-68.0,128.49019607843138,116.50980392156863,20.25,-11.95,15.55
2395.4,-131.0,258.4901960784314,55.509803921568626,-17.86,-7.61,4.84
2395.45,-195.0,79.49019607843137,116.50980392156863,-15.93,-7.3,6.48
2395.5,-163.0,177.49019607843138,86.50980392156863,9.19,-11.5,10.26
2395.55,-195.0,242.49019607843138,70.50980392156863,-9.46,-26.86,-2.96
2395.6,-179.0,95.49019607843137,86.50980392156863,-14.18,-19.44,-6.0
2395.65,-179.0,95.49019607843137,-310.0,-2.98,-7.68,2.11
2395.7,-116.0,258.4901960784314,39.509803921568626,8.91,-1.56,7.57
2395.75,-147.0,209.49019607843138,55.509803921568626,7.33,-11.04,8.27
2395.8,-147.0,193.49019607843138,132.50980392156862,2.99,-7.33,7.11
2395.85,-243.0,242.49019607843138,70.50980392156863,11.99,-8.45,3.75
2395.9,-179.0,177.49019607843138,147.50980392156862,-0.15,-10.83,7.74
2395.95,-131.0,160.49019607843138,178.50980392156862,-7.5,-7.79,0.18
2396.0,-116.0,144.49019607843138,147.50980392156862,-16.7,-8.73,3.02
2396.05,-116.0,111.49019607843137,116.50980392156863,7.3,3.4,8.2
2396.1,-195.0,193.49019607843138,24.50980392156863,-0.15,-5.09,8.2
2396.15,-116.0,193.49019607843138,163.50980392156862,7.86,5.4,9.81
2396.2,-195.0,209.49019607843138,116.50980392156863,9.22,4.49,4.84
2396.25,-147.0,160.49019607843138,101.50980392156863,9.19,-1.24,1.97
2396.3,-147.0,144.49019607843138,209.50980392156862,0.58,9.07,-2.36
2396.35,-179.0,79.49019607843137,178.50980392156862,-17.09,6.59,-5.23
2396.4,-163.0,144.49019607843138,224.50980392156862,-8.2,8.55,-1.98
2396.45,-179.0,193.49019607843138,70.50980392156863,-2.28,5.61,2.77
2396.5,-147.0,177.49019607843138,147.50980392156862,-3.82,4.0,3.23
2396.55,-131.0,193.49019607843138,116.50980392156863,20.07,7.81,7.15
2396.6,-163.0,209.49019607843138,55.509803921568626,4.39,1.27,4.14
2396.65,-116.0,160.49019607843138,147.50980392156862,4.78,1.3,0.32
2396.7,-116.0,128.49019607843138,163.50980392156862,-10.79,1.58,-2.75
2396.75,-131.0,111.49019607843137,132.50980392156862,-12.78,1.76,-1.35
2396.8,-131.0,177.49019607843138,116.50980392156863,-0.81,-0.51,2.46
2396.85,-131.0,226.49019607843138,55.509803921568626,-2.28,-2.15,4.35
2396.9,-116.0,160.49019607843138,116.50980392156863,6.25,-7.3,7.25
2396.95,-100.0,209.49019607843138,163.50980392156862,3.76,-3.9,8.23
2397.0,-116.0,177.49019607843138,132.50980392156862,0.44,-3.31,8.27
2397.05,-100.0,193.49019607843138,86.50980392156863,18.81,-2.96,11.21
2397.1,-100.0,226.49019607843138,101.50980392156863,20.77,-7.16,13.83
2397.15,-84.0,177.49019607843138,132.50980392156862,14.37,-11.04,8.65
2397.2,-100.0,144.49019607843138,147.50980392156862,-5.85,-25.46,4.94
2397.25,-52.0,160.49019607843138,209.50980392156862,6.11,-28.26,7.15
2397.3,-100.0,242.49019607843138,224.50980392156862,-6.1,-15.63,15.48
2397.35,-131.0,95.49019607843137,24.50980392156863,-7.29,-18.01,14.08
2397.4,-100.0,193.49019607843138,101.50980392156863,4.92,-16.99,14.78
2397.45,-116.0,226.49019607843138,147.50980392156862,-2.6,-18.85,14.92
2397.5,-116.0,177.49019607843138,116.50980392156863,-4.87,-17.9,14.43
2397.55,-116.0,177.49019607843138,132.50980392156862,-4.87,-16.89,12.01
2397.6,-116.0,177.49019607843138,163.50980392156862,-11.52,-13.32,8.79
2397.65,-147.0,144.49019607843138,178.50980392156862,-24.55,-10.17,7.81
2397.7,-179.0,144.49019607843138,147.50980392156862,-69.83,-21.82,-0.33
2397.75,-147.0,209.49019607843138,286.5098039215686,-52.72,1.06,2.25
2397.8,-259.0,177.49019607843138,147.50980392156862,-10.33,7.6,13.97
2397.85,-195.0,-236.01960784313727,86.50980392156863,-23.08,9.11,15.93
2397.9,-131.0,144.49019607843138,255.50980392156862,-47.44,-1.8,18.28
2397.95,-100.0,307.4901960784314,316.5098039215686,-83.52,2.91,15.93
2398.0,-52.0,193.49019607843138,-3.0,-34.31,-19.86,34.03
2398.05,-4.0,-220.01960784313727,-203.0,-0.11,-18.88,34.48
2398.1,-68.0,258.4901960784314,-203.0,6.56,-15.63,27.45
2398.15,-68.0,193.49019607843138,-126.0,-39.24,55.8,-23.29
2398.2,-131.0,226.49019607843138,-187.0,1.66,29.72,3.54
2398.25,42.0,-236.01960784313727,-18.0,23.47,3.58,21.11
2398.3,122.0,-286.01960784313724,-187.0,63.26,6.27,11.87
2398.35,-20.0,275.4901960784314,-156.0,119.51,-6.18,-0.02
2398.4,154.0,307.4901960784314,-233.0,84.3,-20.49,20.9
2398.45,201.0,-318.01960784313724,209.50980392156862,96.72,-31.41,27.97
2398.5,154.0,177.49019607843138,-83.49019607843137,64.87,-26.09,20.13
2398.55,42.0,30.49019607843137,39.509803921568626,73.06,-13.67,20.24
2398.6,58.0,160.49019607843138,24.50980392156863,35.68,1.44,10.19
2398.65,106.0,95.49019607843137,39.509803921568626,17.24,6.69,9.74
2398.7,90.0,30.49019607843137,-67.49019607843137,8.17,11.59,3.3
2398.75,58.0,13.490196078431373,-98.49019607843137,12.44,19.89,6.55
2398.8,74.0,79.49019607843137,-83.49019607843137,-9.67,15.72,13.73
2398.85,154.0,79.49019607843137,101.50980392156863,-6.31,6.2,20.66
2398.9,186.0,177.49019607843138,-21.49019607843137,-2.7,16.63,34.66
2398.95,138.0,-2.5098039215686274,-113.49019607843137,-12.85,10.4,27.31
2399.0,122.0,111.49019607843137,-113.49019607843137,27.11,-9.5,26.43
2399.05,249.0,242.49019607843138,-52.490196078431374,2.47,-17.87,17.19
2399.1,265.0,46.490196078431374,70.50980392156863,-117.57,19.68,5.92
2399.15,106.0,-100.50980392156863,24.50980392156863,-260.93,52.96,-2.08
2399.2,106.0,13.490196078431373,70.50980392156863,-255.47,63.67,-13.74
2399.25,27.0,242.49019607843138,178.50980392156862,-97.55,102.91,-3.31
2399.3,-52.0,226.49019607843138,239.50980392156862,-21.53,135.84,-21.33
2399.35,42.0,-286.01960784313724,-233.0,22.28,176.58,-46.67
2399.4,122.0,144.49019607843138,-279.0,16.78,206.54,-12.3
2399.45,138.0,-122.01960784313725,-187.0,-97.8,219.42,76.38
2399.5,201.0,89.98039215686275,27.0,-38.16,165.87,133.01
2399.55,281.0,-106.01960784313725,-246.50980392156862,180.62,96.33,92.44
2399.6,106.0,307.4901960784314,-246.50980392156862,150.69,33.61,-44.57
2399.65,-52.0,150.0,-76.50980392156863,83.74,-56.86,-135.12
2399.7,-147.0,215.0,-107.50980392156863,144.99,-80.9,-148.14
2399.75,208.50980392156862,13.490196078431373,58.0,43.91,-95.18,-151.5
2399.8,224.50980392156862,-18.50980392156863,227.0,5.23,-63.16,-160.04
2399.85,113.50980392156863,226.49019607843138,-3.0,-67.38,-30.4,-167.04
2399.9,113.50980392156863,307.4901960784314,-33.0,-132.73,7.78,-153.84
2399.95,161.50980392156862,-89.01960784313725,-187.0,-100.67,34.41,-122.59
2400.0,161.50980392156862,269.98039215686276,178.50980392156862,-11.59,6.97,-70.47
2400.05,-147.0,-290.52941176470586,9.509803921568627,65.5,-1.56,-10.97
2400.1,-259.0,285.98039215686276,-175.49019607843138,55.77,12.01,36.48
2400.15,97.50980392156863,24.980392156862745,116.50980392156863,81.85,1.69,77.71
2400.2,65.50980392156863,-155.01960784313727,-156.0,85.52,-28.61,106.41
2400.25,34.509803921568626,-236.01960784313727,12.0,72.33,-51.89,121.0
2400.3,34.509803921568626,-286.01960784313724,166.0,55.42,-52.1,114.63
2400.35,81.50980392156863,209.49019607843138,43.0,30.15,-36.63,72.84
2400.4,145.50980392156862,-116.50980392156863,27.0,-5.57,-24.87,13.59
2400.45,177.50980392156862,-263.5098039215686,-49.0,-47.68,-28.75,-22.63
2400.5,145.50980392156862,-231.50980392156862,-64.0,-107.56,-35.75,-34.28
2400.55,113.50980392156863,-35.509803921568626,12.0,-136.96,-34.56,-34.04
2400.6,81.50980392156863,46.490196078431374,-64.0,-169.69,-23.99,-29.1
2400.65,2.5098039215686274,-285.01960784313724,-33.0,-194.22,-44.89,-30.36
2400.7,81.50980392156863,-318.01960784313724,104.0,-122.44,-53.5,-33.02
2400.75,97.50980392156863,-204.01960784313727,73.0,-85.79,-50.52,-20.67
2400.8,129.50980392156862,-253.01960784313727,258.0,-44.84,-41.77,-0.82
2400.85,272.5098039215686,-286.01960784313724,227.0,-52.93,-7.75,8.58
2400.9,208.50980392156862,30.49019607843137,273.0,4.67,-21.54,25.8
2400.95,-227.0,307.4901960784314,-184.50980392156862,-2.14,-21.51,24.58
2401.0,272.5098039215686,128.49019607843138,-61.509803921568626,21.86,-26.83,18.14
2401.05,256.5098039215686,46.490196078431374,-61.509803921568626,14.72,-22.07,10.3
2401.1,272.5098039215686,-18.50980392156863,-107.50980392156863,2.71,-7.16,6.69
2401.15,224.50980392156862,-2.5098039215686274,-61.509803921568626,-25.7,16.04,30.49
2401.2,193.50980392156862,46.490196078431374,-199.50980392156862,-51.07,8.72,34.27
2401.25,256.5098039215686,46.490196078431374,-30.50980392156863,-49.08,-3.62,41.94
2401.3,272.5098039215686,46.490196078431374,30.49019607843137,-31.58,-1.21,35.67
2401.35,-290.0,-18.50980392156863,-107.50980392156863,-59.82,21.39,53.03
2401.4,-306.0,13.490196078431373,-261.5098039215686,7.3,30.14,31.86
2401.45,-259.0,258.4901960784314,-276.5098039215686,-7.92,26.71,-1.14
2401.5,-116.0,-247.50980392156862,92.49019607843137,1.21,6.97,-29.49
2401.55,11.0,-18.50980392156863,138.49019607843138,59.41,-18.92,-44.75
2401.6,-4.0,46.490196078431374,200.49019607843138,86.01,-23.57,-47.44
2401.65,-163.0,95.49019607843137,-30.50980392156863,95.01,-21.37,-43.73
2401.7,-243.0,62.490196078431374,-138.50980392156862,61.93,-14.54,-37.26
2401.75,288.5098039215686,62.490196078431374,-169.50980392156862,17.24,-1.98,-24.94
2401.8,256.5098039215686,13.490196078431373,-107.50980392156863,43.49,8.23,-17.1
2401.85,256.5098039215686,242.49019607843138,-138.50980392156862,-0.85,7.29,-16.82
2401.9,288.5098039215686,-2.5098039215686274,-61.509803921568626,17.59,-9.4,-18.6
2401.95,-211.0,160.49019607843138,-61.509803921568626,-8.65,-29.17,-16.71
2402.0,-179.0,62.490196078431374,-76.50980392156863,6.11,-49.3,-1.42
2402.05,-259.0,209.49019607843138,0.49019607843137253,5.79,-44.22,2.42
2402.1,193.50980392156862,160.49019607843138,-169.50980392156862,-13.94,26.33,9.95
2402.15,-61.490196078431374,258.4901960784314,-203.0,-0.95,27.55,24.79
2402.2,18.50980392156863,209.49019607843138,-292.5098039215686,53.81,13.69,7.99
2402.25,272.5098039215686,226.49019607843138,-138.50980392156862,12.13,27.48,0.99
2402.3,208.50980392156862,-2.5098039215686274,212.0,31.52,19.12,-6.04
2402.35,-243.0,177.49019607843138,-184.50980392156862,-3.02,13.62,-10.52
2402.4,-195.0,-2.5098039215686274,-122.50980392156863,20.53,-1.42,-7.54
2402.45,-147.0,209.49019607843138,-153.50980392156862,2.19,1.37,-13.18
2402.5,-227.0,128.49019607843138,-230.50980392156862,-2.04,-16.89,-8.66
2402.55,320.5098039215686,242.49019607843138,-292.5098039215686,-3.05,-35.79,0.15
2402.6,240.50980392156862,209.49019607843138,-76.50980392156863,4.6,-33.34,-3.41
2402.65,208.50980392156862,160.49019607843138,-261.5098039215686,-11.28,15.06,7.74
2402.7,-13.490196078431373,62.490196078431374,-64.0,1.94,21.11,4.8
2402.75,145.50980392156862,275.4901960784314,227.0,20.6,29.41,1.27
2402.8,193.50980392156862,242.49019607843138,304.0,-1.72,40.57,-1.77
2402.85,193.50980392156862,30.49019607843137,320.0,-1.2,34.76,-0.16
2402.9,256.5098039215686,144.49019607843138,-261.5098039215686,-7.71,18.87,2.18
2402.95,256.5098039215686,144.49019607843138,-199.50980392156862,-7.39,-4.22,7.25
2403.0,320.5098039215686,160.49019607843138,-169.50980392156862,-9.74,-11.08,10.86
2403.05,288.5098039215686,209.49019607843138,-215.50980392156862,-44.46,-13.49,22.41
2403.1,272.5098039215686,128.49019607843138,-292.5098039215686,-24.16,-16.61,35.85
2403.15,272.5098039215686,226.49019607843138,304.0,-13.45,0.81,40.5
2403.2,177.50980392156862,144.49019607843138,-307.5098039215686,22.52,13.76,36.72
2403.25,177.50980392156862,177.49019607843138,227.0,-20.55,27.97,27.27
2403.3,177.50980392156862,46.490196078431374,319.0,-66.82,5.71,39.66
2403.35,-290.0,79.49019607843137,-138.50980392156862,-18.24,-3.76,46.49
2403.4,-259.0,-318.01960784313724,-138.50980392156862,-52.79,-11.88,32.03
2403.45,-163.0,-67.50980392156863,-107.50980392156863,-25.1,-10.66,29.9
2403.5,-195.0,160.49019607843138,-76.50980392156863,-20.31,-15.77,25.73
2403.55,-211.0,144.49019607843138,-138.50980392156862,20.49,-3.48,28.67
2403.6,-163.0,177.49019607843138,-107.50980392156863,-13.13,5.15,16.95
2403.65,-211.0,-35.509803921568626,-138.50980392156862,28.82,8.09,22.23
2403.7,-100.0,-253.01960784313727,-30.50980392156863,-20.2,4.84,9.39
2403.75,-36.0,46.490196078431374,-92.50980392156863,27.39,-22.42,8.58
2403.8,58.0,307.4901960784314,-76.50980392156863,17.41,-28.44,21.92
2403.85,106.0,193.49019607843138,-215.50980392156862,72.92,-37.15,30.42
2403.9,170.0,-318.01960784313724,304.0,16.85,-33.27,19.5
2403.95,58.0,46.490196078431374,-199.50980392156862,-5.15,-28.09,20.34
2404.0,42.0,193.49019607843138,-15.509803921568627,10.87,-12.48,30.32
2404.05,-20.0,209.49019607843138,-276.5098039215686,-17.23,-9.68,16.32
2404.1,74.0,95.49019607843137,-215.50980392156862,1.17,-21.09,7.85
2404.15,138.0,177.49019607843138,-138.50980392156862,40.44,-14.05,13.48
2404.2,74.0,307.4901960784314,-261.5098039215686,-14.67,-8.66,7.5
2404.25,42.0,95.49019607843137,-184.50980392156862,-9.91,-10.94,-2.96
2404.3,106.0,79.49019607843137,-261.5098039215686,-31.33,-17.66,-8.03
2404.35,170.0,144.49019607843138,-292.5098039215686,-7.11,-33.83,-11.99
2404.4,201.0,209.49019607843138,-230.50980392156862,30.4,-42.33,-14.16
2404.45,186.0,209.49019607843138,-123.50980392156863,28.12,-8.0,-10.27
2404.5,106.0,275.4901960784314,-261.5098039215686,1.24,-10.83,-11.85
2404.55,58.0,275.4901960784314,227.0,3.03,-2.78,-24.83
2404.6,-36.0,226.49019607843138,-199.50980392156862,-18.35,-16.12,-23.85
2404.65,74.0,193.49019607843138,-123.50980392156863,-1.55,-18.81,-12.2
2404.7,122.0,291.4901960784314,-307.5098039215686,28.44,-9.05,1.27
2404.75,138.0,258.4901960784314,320.0,3.06,8.58,8.65
2404.8,27.0,144.49019607843138,-215.50980392156862,-11.98,13.52,11.59
2404.85,58.0,177.49019607843138,-199.50980392156862,-9.74,3.37,12.22
2404.9,74.0,193.49019607843138,-199.50980392156862,-6.38,-1.94,11.21
2404.95,138.0,128.49019607843138,-153.50980392156862,-6.73,-1.07,3.51
2405.0,154.0,177.49019607843138,-215.50980392156862,-10.93,-2.19,-2.68
2405.05,138.0,209.49019607843138,-138.50980392156862,23.43,-5.9,-4.18
2405.1,154.0,291.4901960784314,-276.5098039215686,7.54,-13.21,-5.9
2405.15,74.0,177.49019607843138,-276.5098039215686,22.94,-2.22,-4.39
2405.2,-36.0,226.49019607843138,-261.5098039215686,-15.02,4.24,-10.66
2405.25,-20.0,111.49019607843137,-230.50980392156862,28.51,5.57,-15.1
2405.3,-4.0,177.49019607843138,-261.5098039215686,63.96,18.03,-21.72
2405.35,-36.0,128.49019607843138,273.0,-15.06,30.53,-9.92
2405.4,-20.0,258.4901960784314,320.0,10.24,39.49,-3.41
2405.45,-4.0,-204.01960784313727,196.0,4.74,25.77,6.83
2405.5,-4.0,-220.01960784313727,289.0,17.55,16.46,9.91
2405.55,-20.0,-318.01960784313724,258.0,50.03,18.35,16.88
2405.6,42.0,-269.01960784313724,150.0,51.08,23.14,11.14
2405.65,58.0,-302.01960784313724,104.0,-3.61,21.92,5.19
2405.7,74.0,209.49019607843138,73.0,1.63,14.01,14.08
2405.75,-4.0,-286.01960784313724,212.0,1.84,-0.37,6.83
2405.8,58.0,-318.01960784313724,289.0,20.39,4.49,3.02
2405.85,27.0,258.4901960784314,181.0,-1.27,11.7,4.38
2405.9,11.0,209.49019607843138,212.0,-6.87,4.94,-0.4
2405.95,11.0,193.49019607843138,-276.5098039215686,43.84,9.14,2.35
2406.0,58.0,275.4901960784314,181.0,27.81,31.79,25.52
2406.05,27.0,-269.01960784313724,27.0,26.86,37.63,15.9
2406.1,90.0,226.49019607843138,166.0,-4.0,30.6,11.77
2406.15,74.0,258.4901960784314,150.0,-20.66,38.4,12.43
2406.2,58.0,-286.01960784313724,181.0,-10.02,-0.61,1.93
2406.25,154.0,307.4901960784314,135.0,24.17,-7.82,9.35
2406.3,27.0,-253.01960784313727,258.0,-18.87,-14.54,1.72
2406.35,42.0,193.49019607843138,166.0,30.92,-8.24,-6.67
2406.4,11.0,160.49019607843138,227.0,28.33,4.73,-5.9
2406.45,42.0,291.4901960784314,73.0,43.03,26.68,17.96
2406.5,42.0,-236.01960784313727,-64.0,52.9,13.69,16.14
2406.55,106.0,-302.01960784313724,-33.0,-9.63,8.58,12.01
2406.6,74.0,258.4901960784314,135.0,16.4,5.61,-1.24
2406.65,74.0,-286.01960784313724,-33.0,-24.05,-1.07,-18.22
2406.7,27.0,144.49019607843138,-110.0,-52.09,-9.15,3.4
2406.75,58.0,-302.01960784313724,227.0,-5.54,-33.79,8.65
2406.8,186.0,-89.01960784313725,58.0,-25.59,-45.13,-5.16
2406.85,170.0,275.4901960784314,73.0,12.55,-48.21,-13.04
2406.9,154.0,291.4901960784314,43.0,30.5,-38.41,-4.92
2406.95,106.0,-318.01960784313724,-49.0,-10.79,-23.64,2.7
2407.0,58.0,-302.01960784313724,12.0,10.48,-20.81,7.88
2407.05,58.0,-236.01960784313727,-3.0,7.12,-12.62,8.97
2407.1,42.0,-302.01960784313724,43.0,4.32,-11.71,4.91
2407.15,58.0,291.4901960784314,-49.0,5.16,-5.48,-0.37
2407.2,58.0,291.4901960784314,-18.0,19.58,2.49,-0.19
2407.25,74.0,307.4901960784314,-64.0,15.07,9.11,2.91
2407.3,74.0,-318.01960784313724,-64.0,-26.85,11.73,4.42
2407.35,90.0,275.4901960784314,58.0,11.36,0.53,3.79
2407.4,122.0,-302.01960784313724,12.0,18.11,-0.82,4.91
2407.45,106.0,307.4901960784314,-3.0,-5.96,-0.89,1.02
2407.5,74.0,258.4901960784314,-33.0,-18.1,-12.2,-3.83
2407.55,122.0,226.49019607843138,150.0,46.39,-11.67,1.2
2407.6,138.0,-269.01960784313724,-64.0,31.13,2.53,7.36
2407.65,74.0,-253.01960784313727,-126.0,10.62,10.68,8.3
2407.7,90.0,258.4901960784314,-110.0,-9.49,11.28,5.64
2407.75,74.0,-302.01960784313724,-49.0,-8.58,11.17,-3.8
2407.8,154.0,-318.01960784313724,-110.0,-2.35,-1.98,-8.07
2407.85,122.0,291.4901960784314,-95.0,15.94,1.83,-11.88
2407.9,90.0,275.4901960784314,-33.0,1.42,-0.47,-5.44
2407.95,122.0,-318.01960784313724,-33.0,6.35,-0.09,-0.79
2408.0,106.0,-286.01960784313724,-64.0,-4.73,0.22,-0.75
2408.05,74.0,291.4901960784314,-18.0,-5.33,-2.08,-2.71
2408.1,106.0,275.4901960784314,-33.0,-1.69,-0.12,-2.33
2408.15,90.0,291.4901960784314,-64.0,-3.86,0.04,-2.75
2408.2,90.0,307.4901960784314,-49.0,1.94,-0.82,-1.77
2408.25,106.0,-318.01960784313724,-33.0,0.68,-1.03,0.04
2408.3,106.0,307.4901960784314,-64.0,-1.06,0.57,-2.29
2408.35,106.0,291.4901960784314,-79.0,6.98,3.09,-1.03
2408.4,90.0,-318.01960784313724,-64.0,-5.08,3.26,-0.89
2408.45,74.0,-285.01960784313724,-33.0,6.95,9.6,-1.35
2408.5,-140.49019607843138,85.47058823529412,243.0,-14.81,-13.67,-3.2
2408.55,27.0,30.49019607843137,27.0,2.54,1.51,-3.76
2408.6,-225.01960784313727,-274.0,-246.50980392156862,16.26,24.44,-12.72
2408.65,-131.0,-106.01960784313725,-79.0,44.64,49.57,-47.79
2408.7,-52.0,95.49019607843137,-156.0,75.69,62.45,-105.09
2408.75,297.0,101.0,270.5098039215686,157.45,51.6,-163.96
2408.8,35.490196078431374,-143.0,209.50980392156862,182.89,19.12,-218.38
2408.85,49.509803921568626,-138.01960784313727,-310.0,112.26,-30.61,-271.06
2408.9,-38.98039215686274,-89.01960784313725,-3.0,46.95,-63.05,-301.47
2408.95,-45.490196078431374,35.0,178.50980392156862,4.5,-61.69,-284.74
2409.0,-6.980392156862745,-263.5098039215686,86.50980392156863,-11.91,-23.85,-213.8
2409.05,-260.98039215686276,-100.50980392156863,55.509803921568626,-40.4,-19.58,-118.6
2409.1,41.01960784313726,-116.50980392156863,70.50980392156863,-75.96,-0.23,-46.36
2409.15,216.01960784313727,-263.5098039215686,147.50980392156862,-111.45,9.56,-21.44
