rel_time,acc_x,acc_y,acc_z,gyro_x,gyro_y,gyro_z
900.0,-131.0,79.49019607843137,39.509803921568626,0.64,-0.84,0.8
900.05,-147.0,111.49019607843137,39.509803921568626,-0.16,0.13,1.08
900.1,-179.0,95.49019607843137,39.509803921568626,-0.02,0.58,0.52
900.15,-163.0,95.49019607843137,24.50980392156863,0.71,0.09,0.0
900.2,-163.0,111.49019607843137,9.509803921568627,0.08,0.37,0.31
900.25,-147.0,111.49019607843137,39.509803921568626,0.36,1.04,0.24
900.3,-147.0,111.49019607843137,39.509803921568626,0.25,0.69,0.87
900.35,-147.0,128.49019607843138,9.509803921568627,0.81,0.16,0.69
900.4,-131.0,111.49019607843137,39.509803921568626,-0.12,-0.21,-0.07
900.45,-147.0,128.49019607843138,9.509803921568627,-0.51,-0.11,0.31
900.5,-147.0,95.49019607843137,9.509803921568627,-0.26,0.06,0.2
900.55,-147.0,111.49019607843137,24.50980392156863,0.01,0.16,0.03
900.6,-163.0,111.49019607843137,39.509803921568626,-1.42,0.34,0.06
900.65,-131.0,111.49019607843137,24.50980392156863,-0.26,0.02,-0.1
900.7,-147.0,128.49019607843138,55.509803921568626,-0.54,-0.04,0.38
900.75,-163.0,111.49019607843137,24.50980392156863,-1.0,0.13,0.45
900.8,-147.0,111.49019607843137,55.509803921568626,-0.54,-0.32,0.27
900.85,-147.0,111.49019607843137,9.509803921568627,-0.86,-0.14,0.59
900.9,-147.0,111.49019607843137,39.509803921568626,-0.23,-0.14,0.94
900.95,-163.0,128.49019607843138,39.509803921568626,-0.68,0.02,0.24
901.0,-163.0,128.49019607843138,39.509803921568626,0.01,0.16,-0.59
901.05,-147.0,111.49019607843137,39.509803921568626,-1.07,0.72,0.76
901.1,-147.0,111.49019607843137,24.50980392156863,0.74,0.76,0.9
901.15,-147.0,111.49019607843137,39.509803921568626,0.18,0.58,0.55
901.2,-163.0,111.49019607843137,55.509803921568626,0.15,0.41,0.76
901.25,-147.0,128.49019607843138,9.509803921568627,0.95,0.44,0.69
901.3,-163.0,95.49019607843137,70.50980392156863,-0.3,0.72,0.87
901.35,-147.0,95.49019607843137,24.50980392156863,0.99,0.16,0.8
901.4,-116.0,111.49019607843137,39.509803921568626,0.95,-0.88,0.83
901.45,-131.0,128.49019607843138,55.509803921568626,4.66,-1.16,1.6
901.5,-147.0,128.49019607843138,39.509803921568626,30.95,-1.02,6.71
901.55,-163.0,144.49019607843138,9.509803921568627,65.35,-0.77,12.56
901.6,-147.0,111.49019607843137,-21.49019607843137,76.06,3.42,15.11
901.65,-163.0,160.49019607843138,-36.490196078431374,63.57,4.85,18.79
901.7,-147.0,46.490196078431374,-83.49019607843137,43.55,6.04,17.21
901.75,-116.0,-51.509803921568626,-113.49019607843137,37.18,4.08,11.47
901.8,-100.0,-100.50980392156863,-113.49019607843137,25.14,3.7,6.89
901.85,-68.0,-133.50980392156862,-160.49019607843138,24.61,3.73,4.93
901.9,-84.0,-84.50980392156863,-190.49019607843138,15.44,2.82,3.42
901.95,-68.0,-133.50980392156862,-190.49019607843138,9.28,2.05,3.28
902.0,-100.0,-149.50980392156862,-190.49019607843138,3.3,0.76,1.57
902.05,-68.0,-182.50980392156862,-190.49019607843138,2.88,-0.18,1.29
902.1,-84.0,-133.50980392156862,-206.49019607843138,0.04,0.02,0.87
902.15,-68.0,-149.50980392156862,-221.49019607843138,-0.02,0.27,1.11
902.2,-52.0,-149.50980392156862,-206.49019607843138,0.18,0.41,0.48
902.25,-68.0,-149.50980392156862,-221.49019607843138,-0.12,1.11,1.18
902.3,-52.0,-2.5098039215686274,-206.49019607843138,0.11,2.47,1.39
902.35,-283.4901960784314,73.98039215686275,-313.4901960784314,-0.54,0.34,1.22
902.4,106.0,-13.0,-98.49019607843137,0.46,-0.07,1.39
902.45,-241.01960784313727,68.0,52.01960784313726,0.08,-0.98,1.04
902.5,-306.0,-318.01960784313724,255.50980392156862,0.74,-0.14,0.97
902.55,224.50980392156862,-67.50980392156863,-160.49019607843138,-0.86,0.13,0.34
902.6,210.49019607843138,-307.0,-283.4901960784314,0.46,-0.18,0.8
902.65,-259.0,242.49019607843138,-206.49019607843138,1.09,-0.39,1.25
902.7,-77.49019607843137,-318.01960784313724,-160.49019607843138,0.57,-0.42,1.36
902.75,19.49019607843137,-241.0,-267.4901960784314,-0.82,0.27,1.08
902.8,-84.0,-18.50980392156863,-206.49019607843138,-0.33,0.51,1.53
902.85,-188.49019607843138,-155.01960784313727,-144.49019607843138,-0.4,0.76,1.15
902.9,-170.50980392156862,-176.0,-237.49019607843138,1.16,1.18,1.6
902.95,122.0,-198.50980392156862,-190.49019607843138,2.67,1.07,1.15
903.0,-220.49019607843138,-40.01960784313726,-113.49019607843137,2.21,0.34,1.6
903.05,281.0,-45.0,-252.49019607843138,2.6,0.06,2.06
903.1,-313.5098039215686,248.0,-206.49019607843138,2.46,0.62,2.62
903.15,-204.49019607843138,8.980392156862745,-160.49019607843138,4.98,0.13,2.48
903.2,58.0,133.0,-237.49019607843138,0.67,0.76,2.48
903.25,-43.509803921568626,-29.0,-252.49019607843138,1.76,0.69,3.11
903.3,-77.49019607843137,-24.019607843137255,-190.49019607843138,3.51,0.93,3.88
903.35,27.0,-296.5098039215686,-252.49019607843138,2.04,2.09,3.21
903.4,11.0,-231.50980392156862,-221.49019607843138,2.88,1.81,3.46
903.45,-52.0,-165.50980392156862,-236.49019607843138,-0.16,1.32,2.02
903.5,-52.0,-165.50980392156862,-221.49019607843138,1.9,0.27,1.53
903.55,-52.0,-165.50980392156862,-221.49019607843138,2.32,0.27,1.64
903.6,-52.0,-165.50980392156862,-221.49019607843138,0.95,0.65,2.16
903.65,-68.0,-149.50980392156862,-236.49019607843138,1.76,0.51,1.81
903.7,-36.0,-149.50980392156862,-236.49019607843138,4.1,0.09,2.06
903.75,-36.0,-182.50980392156862,-221.49019607843138,3.19,0.34,1.88
903.8,-52.0,-182.50980392156862,-221.49019607843138,0.78,1.11,2.06
903.85,265.0,199.0,-236.49019607843138,2.56,0.76,2.37
903.9,2.5098039215686274,-89.01960784313725,-236.49019607843138,3.79,0.79,2.16
903.95,129.50980392156862,30.49019607843137,-221.49019607843138,1.86,0.86,1.78
904.0,163.49019607843138,-274.0,-267.4901960784314,4.24,0.55,2.02
904.05,-259.0,193.49019607843138,-252.49019607843138,2.18,0.83,1.74
904.1,34.509803921568626,209.49019607843138,-206.49019607843138,1.79,0.44,0.76
904.15,83.49019607843137,-274.0,-267.4901960784314,2.0,-0.18,1.15
904.2,-100.0,30.49019607843137,-252.49019607843138,3.82,0.27,1.57
904.25,-156.49019607843138,-187.01960784313727,-190.49019607843138,1.76,0.34,1.32
904.3,-139.50980392156862,-209.0,-237.49019607843138,0.08,-0.21,0.73
904.35,186.0,-280.5098039215686,-236.49019607843138,-0.23,-0.63,0.48
904.4,-188.49019607843138,-40.01960784313726,-175.49019607843138,1.97,-0.6,1.08
904.45,217.0,3.0,-252.49019607843138,2.04,-0.14,0.66
904.5,-218.50980392156862,133.0,-267.4901960784314,0.81,0.16,0.9
904.55,-140.49019607843138,-40.01960784313726,-221.49019607843138,0.32,0.37,-0.24
904.6,74.0,101.0,-236.49019607843138,-0.09,0.69,0.17
904.65,-139.50980392156862,35.0,-252.49019607843138,-0.89,1.0,0.1
904.7,-140.49019607843138,-57.01960784313726,-236.49019607843138,-1.63,-0.04,0.0
904.75,-4.0,166.0,-221.49019607843138,0.15,0.02,0.73
904.8,-59.509803921568626,-29.0,-236.49019607843138,-0.82,0.37,0.83
904.85,-93.49019607843137,-89.01960784313725,-252.49019607843138,-2.01,0.97,0.41
904.9,-4.0,248.0,-221.49019607843138,-1.87,0.69,0.52
904.95,27.0,-231.50980392156862,-206.49019607843138,-0.09,0.2,1.71
905.0,-84.0,-149.50980392156862,-221.49019607843138,-1.91,0.65,2.86
905.05,-68.0,-149.50980392156862,-252.49019607843138,-8.1,4.4,6.05
905.1,-84.0,-198.50980392156862,-267.4901960784314,-15.17,4.71,18.23
905.15,-20.0,-149.50980392156862,-236.49019607843138,-22.66,0.48,25.12
905.2,-20.0,-133.50980392156862,-221.49019607843138,0.46,-18.03,26.77
905.25,11.0,-51.509803921568626,-113.49019607843137,-15.07,-15.3,33.66
905.3,-4.0,-198.50980392156862,-206.49019607843138,0.04,-23.28,43.81
905.35,11.0,13.490196078431373,-175.49019607843138,-1.7,-25.66,47.63
905.4,-36.0,-84.50980392156863,-144.49019607843138,7.25,-31.78,48.29
905.45,-13.490196078431373,73.98039215686275,-175.49019607843138,9.32,-29.61,46.58
905.5,18.50980392156863,258.4901960784314,-67.49019607843137,-1.1,-21.14,32.33
905.55,170.0,52.0,-113.49019607843137,-3.52,-13.79,19.94
905.6,-225.01960784313727,25.50980392156863,252.01960784313727,30.53,-18.52,34.92
905.65,-305.01960784313724,-45.0,236.01960784313727,-17.69,6.15,10.35
905.7,-211.0,111.49019607843137,-267.4901960784314,4.14,-0.98,15.11
905.75,-172.49019607843138,204.98039215686273,-144.49019607843138,20.24,-14.6,47.14
905.8,34.509803921568626,-269.01960784313724,-21.49019607843137,6.9,-3.43,17.21
905.85,265.0,-127.0,-175.49019607843138,10.65,-7.14,14.66
905.9,-177.01960784313727,205.50980392156862,221.01960784313727,12.64,-7.25,32.89
905.95,217.0,-247.50980392156862,190.01960784313727,1.37,-5.25,19.17
944.0,-84.0,-149.50980392156862,-221.49019607843138,-1.91,0.65,2.86
944.05,-68.0,-149.50980392156862,-252.49019607843138,-8.1,4.4,6.05
944.1,-84.0,-198.50980392156862,-267.4901960784314,-15.17,4.71,18.23
944.15,-20.0,-149.50980392156862,-236.49019607843138,-22.66,0.48,25.12
944.2,-20.0,-133.50980392156862,-221.49019607843138,0.46,-18.03,26.77
944.25,11.0,-51.509803921568626,-113.49019607843137,-15.07,-15.3,33.66
944.3,-4.0,-198.50980392156862,-206.49019607843138,0.04,-23.28,43.81
944.35,11.0,13.490196078431373,-175.49019607843138,-1.7,-25.66,47.63
944.4,-36.0,-84.50980392156863,-144.49019607843138,7.25,-31.78,48.29
944.45,-13.490196078431373,73.98039215686275,-175.49019607843138,9.32,-29.61,46.58
944.5,18.50980392156863,258.4901960784314,-67.49019607843137,-1.1,-21.14,32.33
944.55,170.0,52.0,-113.49019607843137,-3.52,-13.79,19.94
944.6,-225.01960784313727,25.50980392156863,252.01960784313727,30.53,-18.52,34.92
944.65,-305.01960784313724,-45.0,236.01960784313727,-17.69,6.15,10.35
944.7,-211.0,111.49019607843137,-267.4901960784314,4.14,-0.98,15.11
944.75,-172.49019607843138,204.98039215686273,-144.49019607843138,20.24,-14.6,47.14
944.8,34.509803921568626,-269.01960784313724,-21.49019607843137,6.9,-3.43,17.21
944.85,265.0,-127.0,-175.49019607843138,10.65,-7.14,14.66
944.9,-177.01960784313727,205.50980392156862,221.01960784313727,12.64,-7.25,32.89
944.95,217.0,-247.50980392156862,190.01960784313727,1.37,-5.25,19.17
945.0,-20.0,68.0,-206.49019607843138,-9.36,55.74,-52.88
945.05,272.5098039215686,3.0,221.01960784313727,-14.54,57.18,-50.5
945.1,129.50980392156862,-258.0,-252.49019607843138,-11.53,29.42,-22.26
945.15,-131.0,-160.0,-283.4901960784314,5.08,8.04,0.69
945.2,304.5098039215686,-111.0,-283.4901960784314,6.13,42.65,55.99
945.25,122.0,254.50980392156862,282.01960784313724,21.88,2.09,30.79
945.3,-290.0,52.0,313.01960784313724,20.45,14.02,24.7
945.35,-275.0,-143.0,282.01960784313724,0.39,16.51,12.98
945.4,-163.0,-209.0,-283.4901960784314,4.24,10.87,9.79
945.45,-36.0,-160.0,-298.4901960784314,-7.44,17.7,13.05
945.5,-100.0,-176.0,-283.4901960784314,-6.95,11.05,20.47
945.55,11.0,-143.0,252.01960784313727,-0.3,6.39,8.01
945.6,42.0,-94.0,313.01960784313724,-6.67,6.01,9.9
945.65,90.0,-127.0,298.01960784313724,2.74,-2.77,10.63
945.7,122.0,-62.0,236.01960784313727,-9.5,-1.75,-5.88
945.75,27.0,-62.0,267.01960784313724,-9.33,-5.29,-30.8
945.8,-52.0,-127.0,267.01960784313724,-23.05,-11.1,-42.0
945.85,-36.0,-209.0,-252.49019607843138,-25.11,-17.57,-62.02
945.9,-36.0,-127.0,-221.49019607843138,-39.29,-38.89,-83.54
945.95,-52.0,-127.0,-190.49019607843138,-84.75,-54.29,-134.68
946.0,-259.0,-225.0,-52.490196078431374,-117.79,-64.4,-210.21
946.05,161.50980392156862,-160.0,-36.490196078431374,-115.94,-73.68,-246.57
946.1,-77.49019607843137,117.0,-160.49019607843138,-144.81,-69.76,-237.3
946.15,-108.49019607843137,101.0,-21.49019607843137,-104.56,-112.04,-219.03
946.2,-13.490196078431373,297.0,-98.49019607843137,-44.61,-149.03,-164.81
946.25,-45.490196078431374,264.0,-206.49019607843138,-18.22,-157.19,-112.73
946.3,-29.49019607843137,281.0,-52.490196078431374,3.4,-154.28,-77.56
946.35,-45.490196078431374,264.0,-67.49019607843137,-4.57,-147.53,-54.04
946.4,-77.49019607843137,101.0,24.50980392156863,13.9,-115.82,-47.77
946.45,-204.49019607843138,84.0,-67.49019607843137,-22.49,-81.97,-38.53
946.5,-252.49019607843138,19.0,86.50980392156863,-18.22,-50.89,-30.2
946.55,-299.4901960784314,-62.0,178.50980392156862,-25.11,-30.42,-27.82
946.6,-299.4901960784314,-225.0,-310.0,17.16,-35.28,-29.26
946.65,-315.4901960784314,-160.0,-203.0,46.45,-33.95,-21.14
946.7,311.01960784313724,-176.0,-156.0,57.72,-23.8,-15.61
946.75,-299.4901960784314,-225.0,-141.0,54.36,-10.05,-22.08
946.8,-283.4901960784314,-192.0,-126.0,26.05,5.41,-15.08
946.85,-236.49019607843138,-258.0,-95.0,56.57,1.25,-23.97
946.9,-252.49019607843138,-94.0,-141.0,10.23,21.09,-18.76
946.95,104.01960784313725,-241.0,-95.0,32.38,15.6,-4.76
947.0,104.01960784313725,-62.0,-79.0,65.63,1.6,-3.85
947.05,184.01960784313727,-111.0,43.0,66.16,-7.18,-0.24
947.1,88.01960784313725,-258.0,73.0,91.08,-29.09,-1.26
947.15,41.01960784313726,-143.0,12.0,21.15,-33.32,-14.84
947.2,57.01960784313726,221.50980392156862,150.0,3.54,-37.28,-31.92
947.25,136.01960784313727,58.509803921568626,89.0,0.78,-28.74,-22.26
947.3,88.01960784313725,156.50980392156862,-79.0,3.54,-21.77,-18.9
947.35,-6.980392156862745,-274.0,-79.0,8.76,-21.21,-8.78
947.4,72.01960784313725,254.50980392156862,43.0,-5.86,-17.36,-5.98
947.45,104.01960784313725,-307.0,89.0,9.88,-14.95,-8.99
947.5,247.01960784313727,303.5098039215686,196.0,-31.06,-10.54,-27.51
947.55,-315.4901960784314,123.50980392156863,-3.0,10.33,-15.23,-31.92
947.6,311.01960784313724,286.5098039215686,58.0,0.74,-14.35,-28.45
947.65,-267.4901960784314,123.50980392156863,135.0,4.77,-7.39,-21.87
947.7,-283.4901960784314,123.50980392156863,181.0,11.52,-5.71,-18.83
947.75,-252.49019607843138,107.50980392156863,135.0,5.85,-1.16,-9.24
947.8,-283.4901960784314,123.50980392156863,58.0,8.55,-0.7,-14.24
947.85,-220.49019607843138,107.50980392156863,104.0,0.32,5.17,-21.21
947.9,-283.4901960784314,9.509803921568627,289.0,16.46,6.85,-10.53
947.95,216.01960784313727,-138.49019607843138,150.0,11.0,6.71,-2.62
948.0,168.01960784313727,-40.490196078431374,227.0,1.48,1.46,3.95
948.05,120.01960784313725,-203.49019607843138,-276.5098039215686,23.11,-6.86,11.16
948.1,41.01960784313726,-56.490196078431374,212.0,13.62,-6.83,6.64
948.15,72.01960784313725,-23.49019607843137,273.0,16.53,-14.18,12.52
948.2,136.01960784313727,41.509803921568626,212.0,12.19,-18.1,15.5
948.25,120.01960784313725,-7.490196078431373,-184.50980392156862,-12.76,-1.37,20.15
948.3,57.01960784313726,123.50980392156863,-122.50980392156863,15.3,-23.45,14.06
948.35,295.01960784313724,156.50980392156862,135.0,-7.75,-8.61,12.84
948.4,263.01960784313724,237.50980392156862,-292.5098039215686,-13.49,-6.48,8.25
948.45,-220.49019607843138,319.5098039215686,258.0,-4.22,3.59,21.1
948.5,-13.490196078431373,303.5098039215686,43.0,-11.53,21.34,25.47
948.55,34.509803921568626,-241.0,104.0,0.22,18.82,4.33
948.6,208.50980392156862,-192.0,43.0,-1.98,23.16,1.6
948.65,272.5098039215686,-307.0,12.0,-19.2,25.29,-4.93
948.7,288.5098039215686,205.50980392156862,89.0,-28.26,16.96,-16.06
948.75,97.50980392156863,303.5098039215686,-33.0,-22.28,8.67,-21.66
948.8,-93.49019607843137,286.5098039215686,27.0,-21.68,21.83,-6.65
948.85,-315.4901960784314,41.509803921568626,150.0,-22.24,24.77,-8.08
948.9,216.01960784313727,205.50980392156862,27.0,-1.49,3.24,-11.97
948.95,-299.4901960784314,221.50980392156862,-110.0,-8.0,3.77,-13.37
949.0,311.01960784313724,205.50980392156862,27.0,-14.05,5.62,-16.1
949.05,-299.4901960784314,221.50980392156862,58.0,-27.32,6.5,-20.09
949.1,311.01960784313724,303.5098039215686,58.0,-21.26,-0.6,-21.77
949.15,-299.4901960784314,286.5098039215686,-64.0,-4.15,-8.33,-4.3
949.2,311.01960784313724,270.5098039215686,43.0,14.29,-19.04,5.84
949.25,-156.49019607843138,123.50980392156863,-18.0,-17.38,-8.93,-0.87
949.3,-124.49019607843137,123.50980392156863,166.0,-1.28,-28.46,1.92
949.35,34.509803921568626,25.50980392156863,-3.0,0.29,-23.07,7.13
949.4,-124.49019607843137,90.50980392156863,166.0,21.78,-28.53,17.77
949.45,-61.490196078431374,-7.490196078431373,135.0,9.49,-20.23,23.58
949.5,-61.490196078431374,58.509803921568626,150.0,7.39,-29.89,9.97
949.55,-77.49019607843137,123.50980392156863,58.0,13.24,-22.3,12.49
949.6,-188.49019607843138,139.50980392156862,181.0,25.91,-26.57,1.71
949.65,-252.49019607843138,188.50980392156862,166.0,-8.49,2.75,2.83
949.7,-315.4901960784314,188.50980392156862,166.0,1.48,-5.39,3.49
949.75,295.01960784313724,90.50980392156863,58.0,1.44,-4.2,1.64
949.8,231.01960784313727,156.50980392156862,135.0,5.12,-1.86,5.07
949.85,-283.4901960784314,25.50980392156863,181.0,-8.87,5.83,-3.81
949.9,-315.4901960784314,156.50980392156862,258.0,4.1,0.09,0.69
949.95,-252.49019607843138,107.50980392156863,58.0,2.49,-0.04,-6.23
950.0,-299.4901960784314,172.50980392156862,181.0,2.46,-1.54,1.53
950.05,311.01960784313724,58.509803921568626,196.0,-3.03,2.89,-1.08
950.1,311.01960784313724,90.50980392156863,243.0,-5.51,2.26,3.21
950.15,-299.4901960784314,74.50980392156863,273.0,-4.29,1.07,-1.08
950.2,231.01960784313727,188.50980392156862,304.0,-11.29,6.11,6.36
950.25,263.01960784313724,156.50980392156862,320.0,1.86,-7.98,-5.04
950.3,-299.4901960784314,41.509803921568626,120.0,5.57,-13.93,-2.73
950.35,-283.4901960784314,74.50980392156863,273.0,1.97,-14.49,5.07
950.4,-236.49019607843138,41.509803921568626,166.0,-3.24,-9.49,4.19
950.45,-220.49019607843138,156.50980392156862,181.0,-7.37,-7.88,-9.2
950.5,216.01960784313727,-307.0,320.0,-15.35,-8.26,-6.89
950.55,120.01960784313725,25.50980392156863,-230.50980392156862,-16.82,7.79,-3.74
950.6,-133.98039215686273,-268.4901960784314,304.0,-8.66,32.89,-11.41
950.65,238.52941176470588,-252.49019607843138,73.0,-11.36,70.3,-20.16
950.7,301.52941176470586,227.01960784313727,-64.0,-132.67,211.91,2.76
950.75,142.52941176470588,-66.98039215686275,-36.490196078431374,-35.51,242.43,1.78
950.8,104.01960784313725,9.509803921568627,-37.490196078431374,-82.58,-313.49,-61.74
950.85,-117.98039215686275,156.50980392156862,-95.0,-199.27,-176.26,-68.6
950.9,-213.98039215686273,-72.49019607843137,246.49019607843138,-173.02,-151.55,-146.02
950.95,-267.4901960784314,-160.0,46.490196078431374,-90.84,-207.48,-167.75
951.0,304.5098039215686,52.0,-169.50980392156862,-201.34,-307.79,-118.68
951.05,233.0,-78.0,234.98039215686273,-132.88,276.14,-204.75
951.1,-305.01960784313724,258.4901960784314,-110.0,-178.62,234.35,-193.86
951.15,-218.50980392156862,3.0,-203.0,2.14,77.37,-59.01
951.2,83.49019607843137,-176.0,-206.49019607843138,77.53,-13.23,22.64
951.25,178.49019607843138,232.0,-295.0,49.64,-18.34,24.88
951.3,-241.01960784313727,160.49019607843138,27.0,2.21,-5.88,3.07
951.35,-3.019607843137255,177.49019607843138,-218.0,9.0,-6.41,0.13
951.4,-82.01960784313725,13.490196078431373,239.50980392156862,7.81,2.86,5.87
951.45,-193.01960784313727,-133.50980392156862,316.5098039215686,0.99,12.48,3.28
951.5,-320.01960784313724,-84.50980392156863,-310.0,-3.38,11.22,-8.29
951.55,-305.01960784313724,297.0,255.50980392156862,-1.31,3.1,-26.95
951.6,-11.509803921568627,-198.50980392156862,-295.0,-13.11,-8.61,-48.86
951.65,-282.5098039215686,183.0,-218.0,5.5,4.5,-22.36
951.7,138.0,101.0,-126.0,-40.93,23.09,18.75
951.75,-202.50980392156862,-127.0,243.0,5.36,-17.43,58.76
951.8,-257.01960784313724,3.0,12.0,61.89,-67.38,75.63
951.85,99.49019607843137,-100.50980392156863,-233.0,42.08,-81.1,40.73
951.9,194.49019607843138,-214.50980392156862,-33.0,11.21,-45.78,78.6
951.95,-91.50980392156863,248.0,286.5098039215686,63.36,-96.67,58.27
952.0,-130.01960784313727,52.0,-141.0,46.14,-98.6,124.49
952.05,-11.509803921568627,3.0,-36.490196078431374,27.8,-153.83,168.55
952.1,242.49019607843138,-62.0,-190.49019607843138,147.18,-299.53,138.31
952.15,35.490196078431374,166.0,-123.50980392156863,67.21,-264.81,189.17
952.2,-313.5098039215686,-160.0,119.0,178.51,294.72,94.98
952.25,-250.50980392156862,-13.0,-292.5098039215686,37.67,299.37,113.5
952.3,-100.0,221.50980392156862,289.0,65.84,316.07,71.78
952.35,-140.49019607843138,172.50980392156862,-295.0,55.45,-296.38,28.03
952.4,-260.98039215686276,-138.49019607843138,221.01960784313727,10.61,-247.17,28.59
952.45,94.52941176470588,178.01960784313727,-64.0,40.71,-217.67,-15.15
952.5,63.529411764705884,-301.4901960784314,-126.0,86.04,-209.3,-52.46
952.55,-149.98039215686273,-138.49019607843138,70.50980392156863,22.83,-101.57,-32.09
952.6,269.52941176470586,-268.4901960784314,-203.0,-23.89,-4.17,8.29
952.65,-38.98039215686274,-203.49019607843138,-249.0,-53.36,20.71,16.02
952.7,-267.4901960784314,-72.49019607843137,-64.0,-32.25,15.07,-12.88
952.75,-61.490196078431374,-258.0,-79.0,-7.4,21.48,5.56
952.8,2.5098039215686274,188.50980392156862,-80.0,19.82,11.01,15.39
952.85,65.50980392156863,107.50980392156863,12.0,4.31,9.65,6.57
952.9,2.5098039215686274,221.50980392156862,181.0,-17.62,23.4,19.35
952.95,-108.49019607843137,41.509803921568626,227.0,19.19,-6.55,-3.01
953.0,65.50980392156863,58.509803921568626,43.0,-22.0,5.31,5.52
953.05,-299.4901960784314,-7.490196078431373,12.0,6.17,-9.17,15.29
953.1,-236.49019607843138,-40.490196078431374,-3.0,-31.17,18.36,6.05
953.15,88.01960784313725,58.509803921568626,-246.50980392156862,25.87,-2.98,2.3
953.2,-236.49019607843138,123.50980392156863,73.0,-1.1,0.34,-5.53
953.25,-315.4901960784314,9.509803921568627,181.0,2.04,-6.62,7.76
953.3,-283.4901960784314,-23.49019607843137,119.0,-8.52,1.39,7.27
953.35,-315.4901960784314,-7.490196078431373,227.0,11.21,-12.67,0.76
953.4,-283.4901960784314,90.50980392156863,-3.0,-6.74,-8.44,-0.91
953.45,-315.4901960784314,41.509803921568626,135.0,0.15,-13.23,-3.11
953.5,-315.4901960784314,58.509803921568626,43.0,-2.47,-4.2,1.5
953.55,295.01960784313724,58.509803921568626,104.0,4.07,-6.93,-1.29
953.6,295.01960784313724,58.509803921568626,58.0,-16.26,0.93,-3.67
953.65,279.01960784313724,9.509803921568627,104.0,-10.66,4.36,4.54
953.7,-299.4901960784314,156.50980392156862,43.0,-10.76,1.81,-5.7
953.75,311.01960784313724,188.50980392156862,196.0,16.04,-14.11,-11.55
953.8,295.01960784313724,139.50980392156862,12.0,10.16,-15.58,-8.26
953.85,247.01960784313727,41.509803921568626,150.0,-15.42,-3.64,-12.46
953.9,216.01960784313727,9.509803921568627,150.0,-2.68,5.03,-6.79
953.95,231.01960784313727,-56.490196078431374,-79.0,-22.14,22.91,-5.67
954.0,120.01960784313725,-121.49019607843137,135.0,-21.93,25.29,-1.4
954.05,216.01960784313727,-89.49019607843137,-49.0,-12.48,25.57,-8.43
954.1,279.01960784313724,-40.490196078431374,-64.0,-14.16,33.45,-4.2
954.15,231.01960784313727,-89.49019607843137,58.0,-11.46,30.4,7.97
954.2,263.01960784313724,-89.49019607843137,27.0,1.55,15.84,9.62
954.25,247.01960784313727,58.509803921568626,12.0,3.86,-3.29,3.32
954.3,295.01960784313724,9.509803921568627,27.0,-11.88,-9.87,0.94
954.35,216.01960784313727,-56.490196078431374,104.0,9.98,-17.43,3.53
954.4,136.01960784313727,-105.49019607843137,12.0,37.11,-14.28,8.57
954.45,88.01960784313725,-56.490196078431374,119.0,36.34,-10.78,16.02
954.5,88.01960784313725,-154.49019607843138,-172.0,34.8,-23.84,-2.59
954.55,-6.980392156862745,276.01960784313724,-21.49019607843137,-15.28,172.01,-84.24
954.6,-54.98039215686274,308.01960784313724,171.52941176470588,2.21,282.33,-48.47
954.65,200.01960784313727,52.529411764705884,270.5098039215686,-123.5,-264.14,41.85
954.7,104.01960784313725,-230.98039215686273,212.0,-173.51,-317.66,-79.17
954.75,-211.0,-105.49019607843137,-49.0,-244.53,-241.46,-78.08
954.8,-93.49019607843137,-40.490196078431374,-230.50980392156862,-46.36,318.49,-161.17
954.85,-36.0,-78.0,104.0,-158.15,307.53,-211.29
954.9,177.50980392156862,133.0,-166.01960784313727,-310.81,-315.87,-217.45
954.95,-34.01960784313726,128.49019607843138,61.490196078431374,-122.97,289.68,-101.57
955.0,-170.50980392156862,-127.52941176470588,94.52941176470588,-34.0,147.69,-38.64
955.05,35.490196078431374,303.5098039215686,-264.0,36.93,14.83,85.71
955.1,-177.01960784313727,62.490196078431374,-267.4901960784314,12.01,28.27,33.1
955.15,-209.01960784313727,73.98039215686275,-49.0,26.99,11.64,4.93
955.2,299.98039215686276,-286.01960784313724,316.5098039215686,-10.62,10.49,-14.03
955.25,76.98039215686275,275.4901960784314,-172.0,8.69,1.39,-7.42
955.3,299.98039215686276,13.490196078431373,-249.0,7.04,-10.15,3.39
955.35,-34.01960784313726,13.490196078431373,-79.0,1.02,-10.82,-2.55
955.4,-225.01960784313727,13.490196078431373,-33.0,14.43,-23.35,-8.19
955.45,163.49019607843138,-84.50980392156863,-33.0,24.47,-34.48,-18.27
955.5,-186.50980392156862,-263.5098039215686,-110.0,27.13,-27.44,-20.16
955.55,249.0,101.0,-49.0,-42.58,-5.88,-13.89
955.6,58.0,133.0,304.0,-44.75,-12.01,22.46
955.65,-154.50980392156862,-192.0,181.0,-22.94,-16.42,90.4
955.7,67.49019607843137,-160.0,150.0,58.74,-59.4,103.38
955.75,-59.509803921568626,-280.5098039215686,286.5098039215686,54.5,-101.43,41.54
955.8,-241.01960784313727,264.0,-126.0,61.61,-108.78,65.69
955.85,-91.50980392156863,232.0,316.5098039215686,65.98,-142.03,98.41
955.9,-11.509803921568627,199.0,-113.49019607843137,89.36,-206.01,145.91
955.95,-186.50980392156862,264.0,55.509803921568626,3.26,-265.58,123.12
956.0,-320.01960784313724,-263.5098039215686,132.50980392156862,140.39,208.9,106.78
956.05,-146.01960784313727,-280.5098039215686,73.0,110.47,276.06,111.78
956.1,145.50980392156862,68.0,147.50980392156862,37.81,-322.91,87.77
956.15,-117.98039215686275,-258.0,-199.50980392156862,42.11,-311.96,39.72
956.2,31.529411764705884,286.5098039215686,-280.0,101.44,-307.62,23.58
956.25,63.529411764705884,270.5098039215686,9.509803921568627,63.53,-238.84,10.95
956.3,142.52941176470588,276.01960784313724,-110.0,68.99,-198.1,-9.45
956.35,-308.98039215686276,-170.49019607843138,316.5098039215686,64.58,-119.98,-7.91
956.4,-117.98039215686275,-154.49019607843138,178.50980392156862,33.92,-27.58,31.11
956.45,152.01960784313727,276.01960784313724,301.5098039215686,-28.23,28.16,31.88
956.5,247.01960784313727,-40.490196078431374,-3.0,-31.9,44.23,-1.54
956.55,-93.49019607843137,286.5098039215686,-64.0,-31.97,45.63,-0.91
956.6,-188.49019607843138,188.50980392156862,73.0,2.56,32.68,-13.51
956.65,18.50980392156863,172.50980392156862,-64.0,-23.33,40.83,-0.03
956.7,-188.49019607843138,107.50980392156863,150.0,-15.07,46.64,-5.7
956.75,-299.4901960784314,156.50980392156862,258.0,-6.18,31.52,-14.42
956.8,-236.49019607843138,58.509803921568626,120.0,19.78,0.93,-7.31
956.85,-172.49019607843138,-89.49019607843137,-64.0,-10.73,19.59,10.39
956.9,216.01960784313727,-40.490196078431374,273.0,3.82,5.8,-3.18
956.95,200.01960784313727,254.50980392156862,150.0,-10.87,4.61,-6.51
957.0,231.01960784313727,270.5098039215686,181.0,24.26,-12.95,-5.91
957.05,-315.4901960784314,172.50980392156862,-18.0,23.28,-29.33,-8.01
957.1,-236.49019607843138,-23.49019607843137,43.0,8.48,-20.69,-9.73
957.15,-220.49019607843138,-56.490196078431374,104.0,4.84,-16.94,-2.8
957.2,263.01960784313724,25.50980392156863,104.0,12.5,-14.0,4.61
957.25,-299.4901960784314,25.50980392156863,-3.0,0.5,-12.01,-1.43
957.3,311.01960784313724,25.50980392156863,120.0,8.86,-14.21,4.09
957.35,-252.49019607843138,-56.490196078431374,-64.0,-6.6,6.11,3.56
957.4,231.01960784313727,-72.49019607843137,166.0,1.79,-3.19,-6.61
957.45,104.01960784313725,107.50980392156863,-172.0,8.06,-3.96,-10.81
957.5,200.01960784313727,74.50980392156863,135.0,-5.83,2.19,-6.23
957.55,216.01960784313727,-56.490196078431374,135.0,-13.67,8.63,-4.62
957.6,200.01960784313727,-89.49019607843137,119.0,-15.28,21.37,-2.59
957.65,168.01960784313727,-56.490196078431374,43.0,-28.09,32.75,4.05
957.7,120.01960784313725,-72.49019607843137,89.0,-13.91,28.06,0.45
957.75,216.01960784313727,41.509803921568626,43.0,-10.03,26.45,-2.55
957.8,231.01960784313727,25.50980392156863,27.0,-4.5,19.9,1.04
957.85,216.01960784313727,-56.490196078431374,43.0,-3.03,13.57,8.43
957.9,216.01960784313727,-40.490196078431374,135.0,-4.64,3.1,8.43
957.95,152.01960784313727,-40.490196078431374,58.0,7.88,-10.75,4.86
958.0,200.01960784313727,-23.49019607843137,73.0,48.69,-28.53,-2.55
958.05,216.01960784313727,41.509803921568626,-79.0,96.96,-50.02,-9.24
958.1,231.01960784313727,139.50980392156862,-141.0,71.2,-12.5,-29.36
958.15,-22.980392156862745,-154.49019607843138,196.0,-158.46,152.8,-18.34
958.2,-86.98039215686275,-279.98039215686276,-206.49019607843138,-62.84,197.98,-56.94
958.25,311.01960784313724,237.50980392156862,186.52941176470588,-107.12,311.52,7.52
958.3,-260.98039215686276,188.50980392156862,135.0,-150.62,-263.86,-32.23
958.35,-149.98039215686273,-78.0,304.0,-169.52,-223.16,-120.08
958.4,72.01960784313725,248.0,304.0,-155.28,-198.41,-102.16
958.45,-61.490196078431374,117.0,-76.50980392156863,-78.0,-304.92,-149.41
958.5,-179.0,-29.0,227.0,-226.36,-287.63,-40.67
958.55,-36.0,-192.0,80.98039215686275,-212.01,173.13,-207.37
958.6,-191.0392156862745,62.490196078431374,27.0,2.7,185.49,-179.55
958.65,233.0,35.0,155.52941176470588,49.74,78.88,-36.29
958.7,90.0,-13.0,-144.49019607843138,60.84,10.24,12.84
958.75,194.49019607843138,62.490196078431374,316.5098039215686,5.64,8.63,-1.01
958.8,44.98039215686274,30.49019607843137,-33.0,41.03,-23.21,18.61
958.85,108.98039215686275,144.49019607843138,86.50980392156863,38.54,-26.39,21.55
958.9,44.98039215686274,30.49019607843137,178.50980392156862,10.26,-16.8,-1.08
958.95,-50.01960784313726,-67.50980392156863,286.5098039215686,37.81,-33.85,9.44
959.0,-209.01960784313727,-296.5098039215686,39.509803921568626,25.84,-19.15,9.76
959.05,258.4901960784314,-198.50980392156862,270.5098039215686,15.79,-5.39,-1.26
959.1,83.49019607843137,-312.5098039215686,224.50980392156862,-5.58,0.06,-15.89
959.15,-75.50980392156863,166.0,-310.0,-38.69,4.82,-26.28
959.2,201.0,68.0,-141.0,-43.17,15.07,-13.96
959.25,106.0,35.0,-295.0,-63.12,13.64,21.1
959.3,-234.50980392156862,3.0,89.0,-35.44,-9.31,84.41
959.35,-91.50980392156863,3.0,-249.0,36.34,-32.69,87.84
959.4,-27.50980392156863,-280.5098039215686,-52.490196078431374,62.17,-53.66,55.12
959.45,-257.01960784313724,183.0,-33.0,47.01,-87.15,55.5
959.5,115.49019607843137,101.0,-233.0,85.55,-97.09,108.84
959.55,-43.509803921568626,232.0,163.50980392156862,132.97,-170.66,173.21
959.6,19.49019607843137,101.0,286.5098039215686,-74.11,-273.6,212.16
959.65,35.490196078431374,52.0,-21.49019607843137,36.79,274.77,120.71
959.7,-305.01960784313724,-78.0,-21.49019607843137,55.27,276.34,123.12
959.75,313.0,248.0,-218.0,149.81,277.08,33.24
959.8,-290.0,215.0,209.50980392156862,39.59,-296.1,39.33
959.85,247.01960784313727,156.50980392156862,196.0,76.17,326.71,15.74
959.9,216.01960784313727,58.509803921568626,255.50980392156862,87.68,-292.25,-0.14
959.95,-54.98039215686274,276.01960784313724,-203.0,63.53,-212.84,-24.22
960.0,110.52941176470588,112.01960784313725,166.0,64.69,-183.86,-32.3
960.05,206.52941176470588,-40.490196078431374,-310.0,10.96,-85.79,-31.04
960.1,317.52941176470586,259.01960784313724,316.5098039215686,8.76,-21.11,19.94
960.15,136.01960784313727,-252.49019607843138,-310.0,-39.39,33.97,21.66
960.2,-156.49019607843138,188.50980392156862,-33.0,-37.85,44.02,-1.61
960.25,18.50980392156863,254.50980392156862,73.0,-25.88,31.73,-18.76
960.3,129.50980392156862,-307.0,-64.0,-27.35,37.4,-15.15
960.35,-93.49019607843137,237.50980392156862,-64.0,-1.56,34.95,-2.59
960.4,-156.49019607843138,139.50980392156862,27.0,-15.59,40.62,-12.49
960.45,-299.4901960784314,237.50980392156862,181.0,18.77,12.38,-11.41
960.5,-93.49019607843137,74.50980392156863,12.0,-10.27,30.65,18.86
960.55,311.01960784313724,-56.490196078431374,89.0,-9.19,26.31,13.15
960.6,216.01960784313727,90.50980392156863,304.0,10.82,-0.88,-6.58
960.65,311.01960784313724,221.50980392156862,258.0,5.08,-0.32,-4.48
960.7,311.01960784313724,205.50980392156862,289.0,16.6,-12.08,8.08
960.75,295.01960784313724,25.50980392156863,104.0,-10.59,-6.9,5.63
960.8,311.01960784313724,9.509803921568627,273.0,3.65,-16.84,6.43
960.85,-283.4901960784314,41.509803921568626,119.0,3.44,-19.36,4.51
960.9,247.01960784313727,123.50980392156863,73.0,2.53,-16.52,1.67
960.95,247.01960784313727,9.509803921568627,89.0,9.88,-21.46,-2.69
961.0,263.01960784313724,-7.490196078431373,58.0,-4.78,-10.43,1.92
961.05,168.01960784313727,-56.490196078431374,166.0,-12.2,-0.25,-0.52
961.1,88.01960784313725,-7.490196078431373,166.0,-7.75,3.8,-3.57
961.15,184.01960784313727,-56.490196078431374,-49.0,-16.61,5.17,-18.65
961.2,104.01960784313725,-23.49019607843137,196.0,-22.73,19.59,-7.66
961.25,72.01960784313725,-203.49019607843138,-3.0,-21.79,33.31,0.31
961.3,72.01960784313725,-138.49019607843138,73.0,-32.92,43.25,6.05
961.35,231.01960784313727,-121.49019607843137,120.0,-16.85,36.14,0.17
961.4,263.01960784313724,25.50980392156863,58.0,-13.04,25.82,0.24
961.45,-315.4901960784314,41.509803921568626,43.0,4.84,9.93,-3.08
961.5,263.01960784313724,41.509803921568626,27.0,-0.96,2.79,3.39
961.55,216.01960784313727,-40.490196078431374,166.0,-9.05,-0.28,6.57
961.6,104.01960784313725,-105.49019607843137,166.0,20.59,-13.55,10.77
961.65,184.01960784313727,-72.49019607843137,43.0,55.66,-16.7,5.56
961.7,263.01960784313724,90.50980392156863,-33.0,95.66,-37.66,-2.87
961.75,279.01960784313724,41.509803921568626,-141.0,-43.35,70.97,-58.03
961.8,-229.98039215686273,-236.49019607843138,132.50980392156862,-121.08,193.05,-51.94
961.85,-181.98039215686273,-66.98039215686275,-40.98039215686274,-100.53,268.72,-13.05
961.9,-172.49019607843138,297.52941176470586,-298.4901960784314,-129.41,-250.88,5.52
961.95,136.01960784313727,-164.98039215686273,-246.50980392156862,-87.73,-296.87,-92.47
962.0,304.5098039215686,-307.0,-18.0,-147.96,-257.39,-108.92
962.05,-108.49019607843137,41.509803921568626,-307.5098039215686,-135.08,-258.58,-125.93
962.1,2.5098039215686274,-160.0,-30.50980392156863,-148.7,323.74,-146.75
962.15,42.0,35.0,292.4901960784314,-90.0,213.56,-139.09
962.2,274.4901960784314,-198.50980392156862,138.49019607843138,-74.39,262.77,-170.73
962.25,-266.5098039215686,-182.50980392156862,-113.49019607843137,-47.34,170.16,-79.41
962.3,-298.5098039215686,-29.0,129.01960784313727,50.44,52.8,3.14
962.35,-305.01960784313724,13.490196078431373,132.50980392156862,11.94,10.31,-22.61
962.4,-146.01960784313727,-302.01960784313724,73.0,26.82,-8.19,10.53
962.45,-98.01960784313725,291.4901960784314,-64.0,21.18,-11.62,29.6
962.5,-114.01960784313725,307.4901960784314,-33.0,18.03,-21.77,16.9
962.55,-161.01960784313727,144.49019607843138,-79.0,12.89,-22.89,1.22
962.6,-177.01960784313727,46.490196078431374,-249.0,12.12,-20.93,-4.69
962.65,-305.01960784313724,-214.50980392156862,-279.0,5.08,-12.18,-5.0
962.7,35.490196078431374,-231.50980392156862,-279.0,-35.12,5.62,-29.85
962.75,-234.50980392156862,-280.5098039215686,-33.0,-42.4,0.02,-39.13
962.8,122.0,183.0,-64.0,-5.02,-5.36,4.75
962.85,265.0,-45.0,-64.0,-4.95,-16.31,54.63
962.9,306.4901960784314,-209.0,258.0,38.02,-38.78,110.73
962.95,-218.50980392156862,264.0,-187.0,47.4,-49.74,84.8
963.0,99.49019607843137,-214.50980392156862,-126.0,83.9,-75.22,76.5
963.05,-209.01960784313727,248.0,-187.0,98.04,-90.06,111.36
963.1,19.49019607843137,-263.5098039215686,116.50980392156863,104.9,-108.15,149.13
963.15,-202.50980392156862,313.0,190.01960784313727,26.4,-214.03,164.91
963.2,51.490196078431374,281.0,-64.0,68.61,291.22,92.43
963.25,-241.01960784313727,3.0,304.0,83.45,305.67,113.29
963.3,201.0,-280.5098039215686,320.0,50.72,321.25,143.53
963.35,-52.0,68.0,-203.0,64.86,-311.12,63.59
963.4,-315.4901960784314,319.5098039215686,43.0,50.79,-294.95,58.62
963.45,-149.98039215686273,-121.49019607843137,196.0,77.22,-299.11,17.07
963.5,-276.98039215686276,-89.49019607843137,-295.0,76.69,-241.15,6.61
963.55,47.529411764705884,-317.4901960784314,-279.0,60.21,-195.3,-1.96
963.6,126.52941176470588,80.01960784313725,-218.0,56.64,-149.35,10.35
963.65,-260.98039215686276,308.01960784313724,-187.0,33.36,-80.71,8.6
963.7,-38.98039215686274,-203.49019607843138,-203.0,-9.99,-8.44,24.56
963.75,231.01960784313727,-301.4901960784314,-141.0,-28.93,31.84,18.23
963.8,-220.49019607843138,90.50980392156863,-79.0,-35.47,43.11,13.26
963.85,18.50980392156863,205.50980392156862,104.0,-41.91,44.93,-15.19
963.9,177.50980392156862,221.50980392156862,12.0,-33.3,44.33,-4.34
963.95,-172.49019607843138,-290.0,58.0,-4.04,33.48,0.06
964.0,-236.49019607843138,205.50980392156862,12.0,2.74,27.99,-8.85
964.05,-236.49019607843138,58.509803921568626,104.0,-0.82,22.49,3.53
964.1,-252.49019607843138,-7.490196078431373,104.0,-24.83,32.12,-1.54
964.15,247.01960784313727,58.509803921568626,258.0,2.39,15.77,-5.32
964.2,-315.4901960784314,90.50980392156863,166.0,-3.24,9.75,-4.83
964.25,-252.49019607843138,25.50980392156863,104.0,-1.98,-8.12,-8.01
964.3,-267.4901960784314,-7.490196078431373,120.0,-16.43,-7.0,-1.92
964.35,-315.4901960784314,-23.49019607843137,120.0,-2.43,-14.88,-0.66
964.4,-315.4901960784314,58.509803921568626,150.0,-3.52,-18.87,-1.01
964.45,295.01960784313724,25.50980392156863,73.0,14.88,-28.95,-5.95
964.5,-299.4901960784314,90.50980392156863,-33.0,-17.41,-12.95,-0.31
964.55,247.01960784313727,-56.490196078431374,181.0,-11.08,-14.95,3.35
964.6,247.01960784313727,-40.490196078431374,12.0,-4.74,-16.45,-5.11
964.65,136.01960784313727,-23.49019607843137,58.0,-1.28,-0.14,2.72
964.7,88.01960784313725,-154.49019607843138,58.0,-25.85,25.4,-2.94
964.75,231.01960784313727,-40.490196078431374,-95.0,-9.61,27.74,-4.83
964.8,231.01960784313727,-23.49019607843137,-110.0,-10.62,34.6,6.12
964.85,216.01960784313727,-219.49019607843138,58.0,-19.2,41.81,6.57
964.9,152.01960784313727,-89.49019607843137,104.0,-1.45,30.86,8.88
964.95,231.01960784313727,58.509803921568626,-79.0,-3.52,23.54,6.08
965.0,231.01960784313727,9.509803921568627,12.0,-8.56,18.57,11.54
965.05,247.01960784313727,9.509803921568627,-3.0,-11.5,14.41,10.67
965.1,-283.4901960784314,-7.490196078431373,27.0,-7.51,7.51,4.82
965.15,231.01960784313727,90.50980392156863,58.0,2.25,-4.55,7.73
965.2,-299.4901960784314,41.509803921568626,-49.0,14.81,-5.5,13.64
965.25,-220.49019607843138,9.509803921568627,-95.0,23.42,3.84,14.41
965.3,-188.49019607843138,221.50980392156862,-95.0,47.82,-3.85,18.58
965.35,-188.49019607843138,156.50980392156862,-126.0,-28.02,62.11,-59.71
965.4,-299.4901960784314,-225.0,-283.4901960784314,-106.56,163.44,-83.19
965.45,-254.47058823529412,-34.98039215686274,282.01960784313724,-88.85,253.11,-70.63
965.5,222.52941176470588,150.52941176470588,-9.980392156862745,-83.39,-298.93,36.01
965.55,-181.98039215686273,280.52941176470586,-141.0,-72.99,-309.01,-51.94
965.6,-140.49019607843138,-241.0,-233.0,-180.83,-232.01,-110.77
965.65,311.01960784313724,58.509803921568626,243.0,-127.07,-244.37,-139.51
965.7,177.50980392156862,-29.0,-230.50980392156862,-208.93,281.56,-164.99
965.75,233.0,-78.0,261.4901960784314,-68.37,290.7,-170.24
965.8,-146.01960784313727,193.49019607843138,-295.0,-87.76,211.81,-229.74
965.85,163.49019607843138,19.0,282.01960784313724,29.79,72.89,-24.88
965.9,233.0,-51.509803921568626,-98.49019607843137,49.25,17.21,5.87
965.95,-50.01960784313726,209.49019607843138,239.50980392156862,-53.81,43.56,-20.82
966.0,187.98039215686273,-220.01960784313727,166.0,32.14,-15.86,2.41
966.05,187.98039215686273,111.49019607843137,-190.49019607843138,17.09,-7.21,-3.22
966.1,-146.01960784313727,258.4901960784314,-156.0,-1.66,-8.26,-0.59
966.15,-320.01960784313724,128.49019607843138,-126.0,16.56,-17.92,1.81
966.2,147.49019607843138,-35.509803921568626,-264.0,-13.67,-13.13,-17.81
966.25,-75.50980392156863,-116.50980392156863,-64.0,5.82,-21.07,-44.03
966.3,-107.50980392156863,297.0,316.5098039215686,-49.09,14.13,-9.97
966.35,201.0,183.0,43.0,-43.24,18.15,34.68
966.4,-266.5098039215686,-45.0,43.0,-35.58,9.51,86.44
966.45,147.49019607843138,-78.0,119.0,60.8,-51.84,106.67
966.5,-202.50980392156862,84.0,-264.0,42.67,-19.46,122.0
966.55,-234.50980392156862,79.49019607843137,89.0,46.38,-59.96,92.95
966.6,-313.5098039215686,-149.50980392156862,-280.0,58.7,-77.67,89.1
966.65,147.49019607843138,248.0,239.50980392156862,43.06,-147.6,81.82
966.7,194.49019607843138,215.0,-310.0,38.05,-194.78,115.18
966.75,-107.50980392156863,199.0,-98.49019607843137,20.48,-236.25,123.93
966.8,-75.50980392156863,84.0,70.50980392156863,106.48,249.01,135.9
966.85,-177.01960784313727,133.0,-199.50980392156862,123.17,201.93,119.13
966.9,-107.50980392156863,133.0,-79.0,92.58,308.09,111.61
966.95,-77.49019607843137,-209.0,-310.0,27.76,-308.91,35.38
967.0,-38.98039215686274,-7.490196078431373,304.0,65.18,-301.74,19.84
967.05,190.52941176470588,9.509803921568627,193.50980392156862,101.09,-285.92,11.79
967.1,190.52941176470588,-7.490196078431373,39.509803921568626,38.75,-204.86,8.71
967.15,-111.47058823529412,145.01960784313727,-49.0,43.2,-172.27,-5.88
967.2,-292.98039215686276,-219.49019607843138,-233.0,-8.03,-83.69,-1.5
967.25,-149.98039215686273,308.01960784313724,-249.0,-2.19,-18.94,30.13
967.3,311.01960784313724,-187.49019607843138,193.50980392156862,-20.35,17.84,17.49
967.35,-140.49019607843138,172.50980392156862,-64.0,-49.65,43.63,-2.69
967.4,-29.49019607843137,237.50980392156862,135.0,-12.86,33.45,-15.92
967.45,161.50980392156862,-307.0,-126.0,-18.78,38.42,7.73
967.5,-61.490196078431374,123.50980392156863,27.0,-16.57,33.48,-14.14
967.55,-172.49019607843138,172.50980392156862,150.0,-9.05,33.52,-3.39
967.6,-299.4901960784314,172.50980392156862,135.0,13.97,14.86,-1.05
967.65,-283.4901960784314,107.50980392156863,73.0,-3.2,17.42,-9.06
967.7,279.01960784313724,74.50980392156863,166.0,-0.79,-4.1,4.61
967.75,-220.49019607843138,-89.49019607843137,58.0,-19.27,-0.25,2.06
967.8,-299.4901960784314,-56.490196078431374,181.0,2.42,-17.12,5.1
967.85,247.01960784313727,41.509803921568626,119.0,-13.21,-11.55,3.67
967.9,184.01960784313727,172.50980392156862,243.0,-7.3,-21.21,1.29
967.95,279.01960784313724,107.50980392156863,-49.0,2.49,-24.05,0.0
968.0,263.01960784313724,41.509803921568626,120.0,7.11,-22.19,-0.24
968.05,247.01960784313727,-23.49019607843137,-64.0,-5.55,-12.85,-3.95
968.1,184.01960784313727,-23.49019607843137,43.0,-0.86,-13.58,-14.38
968.15,216.01960784313727,9.509803921568627,-64.0,-11.18,-0.91,-6.26
968.2,25.019607843137255,-138.49019607843138,73.0,-22.7,14.48,2.13
968.25,25.019607843137255,-203.49019607843138,73.0,-26.41,25.75,0.41
968.3,9.019607843137255,-138.49019607843138,27.0,-19.76,33.45,4.02
968.35,72.01960784313725,-121.49019607843137,-49.0,-11.36,27.08,2.34
968.4,168.01960784313727,-56.490196078431374,12.0,-6.46,22.39,3.0
968.45,200.01960784313727,-72.49019607843137,43.0,-3.69,17.0,5.7
968.5,200.01960784313727,41.509803921568626,104.0,-27.63,11.12,6.82
968.55,200.01960784313727,90.50980392156863,227.0,0.64,-10.54,1.01
968.6,-299.4901960784314,156.50980392156862,12.0,17.68,-15.16,-11.27
968.65,295.01960784313724,58.509803921568626,-3.0,46.14,-15.37,-9.03
968.7,-283.4901960784314,25.50980392156863,-141.0,81.84,-1.19,-0.56
968.75,263.01960784313724,-105.49019607843137,-187.0,-119.23,146.88,-26.98
968.8,206.52941176470588,-17.980392156862745,-80.0,-103.44,197.6,-44.97
968.85,57.01960784313726,-154.49019607843138,313.01960784313724,-73.06,290.35,-21.56
968.9,295.01960784313724,292.01960784313724,-233.0,-76.18,-268.48,5.1
968.95,-22.980392156862745,25.50980392156863,-153.50980392156862,-126.89,-230.68,-103.35
969.0,-252.49019607843138,-111.0,-169.50980392156862,-145.86,-162.33,-136.22
969.05,-29.49019607843137,-176.0,-212.01960784313727,-110.86,-227.85,-154.84
969.1,74.0,52.0,261.4901960784314,-224.37,261.96,-93.27
969.15,4.490196078431373,-29.0,-150.01960784313727,-7.47,122.21,-129.25
969.2,-143.0392156862745,307.4901960784314,-298.4901960784314,-39.5,185.66,-240.76
969.25,-139.50980392156862,52.0,-240.98039215686273,-16.54,102.54,-13.4
969.3,-4.0,-13.0,-310.0,7.6,29.42,-6.23
969.35,-98.01960784313725,-84.50980392156863,86.50980392156863,19.22,-15.3,-10.64
969.4,140.98039215686273,242.49019607843138,-203.0,45.79,-32.31,15.88
969.45,76.98039215686275,128.49019607843138,147.50980392156862,32.63,-17.26,18.12
969.5,-3.019607843137255,160.49019607843138,224.50980392156862,19.33,-5.81,11.68
969.55,-225.01960784313727,-100.50980392156863,163.50980392156862,8.16,-1.79,2.65
969.6,163.49019607843138,-280.5098039215686,193.50980392156862,-18.64,-1.3,-21.1
969.65,-91.50980392156863,-296.5098039215686,-233.0,-0.72,-22.4,-41.51
969.7,313.0,84.0,-264.0,-14.4,-2.8,-30.41
969.75,74.0,52.0,-64.0,-82.9,7.09,23.16
969.8,-218.50980392156862,-94.0,-215.50980392156862,-43.91,1.56,111.75
969.85,35.490196078431374,-62.0,-218.0,72.07,-52.29,133.13
969.9,265.0,101.0,70.50980392156863,74.31,-31.05,117.77
969.95,217.0,-198.50980392156862,-141.0,37.21,-79.28,91.03
970.0,194.49019607843138,248.0,-110.0,66.05,-153.02,103.28
970.05,242.49019607843138,150.0,239.50980392156862,50.37,-238.35,160.61
970.1,-218.50980392156862,297.0,-221.49019607843138,-80.03,-248.96,222.38
970.15,-91.50980392156863,52.0,-255.98039215686273,126.99,134.31,103.56
970.2,-120.52941176470588,270.5098039215686,246.49019607843138,189.99,244.77,112.83
970.25,-52.0,-84.50980392156863,150.0,170.39,252.68,-49.07
970.3,-275.0,-78.0,-196.01960784313727,-52.9,-257.36,42.73
970.35,-223.47058823529412,96.01960784313725,-292.5098039215686,101.3,303.96,-5.18
970.4,-6.980392156862745,25.50980392156863,-21.49019607843137,109.07,-302.75,-22.57
970.45,94.52941176470588,276.01960784313724,-249.0,70.88,-209.51,1.67
970.5,-48.470588235294116,-50.98039215686274,-79.0,6.66,-79.91,6.05
970.55,-64.47058823529412,31.019607843137255,-172.0,12.19,-12.46,54.63
970.6,152.01960784313727,194.01960784313727,-83.49019607843137,-51.01,45.7,40.56
970.65,-299.4901960784314,286.5098039215686,-3.0,-37.12,35.09,-19.42
970.7,177.50980392156862,-160.0,-95.0,-49.23,46.29,-13.58
970.75,65.50980392156863,286.5098039215686,12.0,-17.17,33.94,-13.75
970.8,-77.49019607843137,-307.0,-95.0,-3.34,26.13,-5.25
970.85,-77.49019607843137,139.50980392156862,-141.0,-4.85,26.8,-7.59
970.9,311.01960784313724,156.50980392156862,212.0,-4.43,19.66,-0.87
970.95,-299.4901960784314,139.50980392156862,181.0,-6.56,12.41,-1.08
971.0,-252.49019607843138,41.509803921568626,12.0,-12.09,3.87,7.27
971.05,311.01960784313724,41.509803921568626,135.0,-13.67,1.25,14.03
971.1,-315.4901960784314,58.509803921568626,120.0,-2.22,-12.39,-0.56
971.15,231.01960784313727,172.50980392156862,196.0,10.68,-23.42,-5.91
971.2,295.01960784313724,156.50980392156862,73.0,-7.86,-15.58,4.65
971.25,231.01960784313727,74.50980392156863,166.0,14.6,-28.91,-4.86
971.3,295.01960784313724,-72.49019607843137,43.0,2.39,-23.07,-7.03
971.35,152.01960784313727,-89.49019607843137,73.0,-3.48,-16.94,-4.62
971.4,104.01960784313725,9.509803921568627,166.0,0.53,-21.0,-16.48
971.45,136.01960784313727,-40.490196078431374,-33.0,-11.67,1.32,-6.93
971.5,-6.980392156862745,-154.49019607843138,43.0,-12.06,18.26,-4.06
971.55,-22.980392156862745,-154.49019607843138,27.0,-24.2,37.33,5.7
971.6,9.019607843137255,-138.49019607843138,58.0,-29.66,47.17,11.16
971.65,152.01960784313727,-154.49019607843138,27.0,-17.38,42.62,9.37
971.7,200.01960784313727,-23.49019607843137,73.0,-20.81,32.99,10.25
971.75,168.01960784313727,74.50980392156863,150.0,-14.51,13.5,0.1
971.8,279.01960784313724,123.50980392156863,43.0,1.86,-1.47,-5.42
971.85,-315.4901960784314,58.509803921568626,104.0,25.03,-8.23,-6.61
971.9,311.01960784313724,90.50980392156863,-18.0,60.49,-21.49,-6.54
971.95,-204.49019607843138,107.50980392156863,-172.0,55.59,-1.79,-2.52
972.0,216.01960784313727,-89.49019607843137,-64.0,39.03,20.95,-9.24
972.05,57.01960784313726,-219.49019607843138,70.50980392156863,-66.59,99.81,-25.37
972.1,94.52941176470588,-138.49019607843138,55.509803921568626,-180.62,225.53,-18.58
972.15,-86.98039215686275,-219.49019607843138,-21.49019607843137,-81.64,270.26,-3.22
972.2,-252.49019607843138,41.509803921568626,70.50980392156863,-84.47,-313.67,-0.03
972.25,247.01960784313727,-307.0,58.0,-102.99,-263.27,-116.97
972.3,-29.49019607843137,-45.0,166.0,-183.8,-143.88,-135.38
972.35,311.01960784313724,-225.0,-181.01960784313727,-142.19,-149.27,-125.68
972.4,186.0,-280.5098039215686,-150.01960784313727,-99.38,215.94,-74.2
972.45,178.49019607843138,3.0,307.4901960784314,-61.51,203.09,-156.94
972.5,155.98039215686273,-18.50980392156863,21.019607843137255,5.78,147.16,-260.71
972.55,-225.01960784313727,303.5098039215686,-310.0,-0.3,88.33,-35.77
972.6,-75.50980392156863,-263.5098039215686,-95.0,0.57,31.66,-19.28
972.65,-305.01960784313724,177.49019607843138,-233.0,4.49,-0.56,-14.0
972.7,12.980392156862745,-302.01960784313724,316.5098039215686,32.56,-29.19,-3.64
972.75,155.98039215686273,258.4901960784314,-203.0,11.17,-4.2,5.8
972.8,12.980392156862745,62.490196078431374,-310.0,-9.43,16.44,-0.42
972.85,-209.01960784313727,-100.50980392156863,-249.0,-3.55,6.11,-8.47
972.9,147.49019607843138,-84.50980392156863,-295.0,13.52,-5.15,-23.73
972.95,-123.50980392156863,-263.5098039215686,-295.0,11.94,-13.06,-39.48
973.0,186.0,232.0,-79.0,-20.49,6.46,-8.19
973.05,58.0,199.0,135.0,-22.07,-9.42,33.24
973.1,115.49019607843137,-209.0,-307.5098039215686,3.96,-26.64,98.83
973.15,83.49019607843137,-29.0,193.50980392156862,51.74,-58.49,89.21
973.2,-289.01960784313724,-231.50980392156862,-264.0,30.67,-76.86,57.22
973.25,-273.01960784313724,264.0,-79.0,46.87,-116.87,67.23
973.3,-91.50980392156863,-263.5098039215686,-310.0,80.3,-114.94,98.97
973.35,297.0,-296.5098039215686,9.509803921568627,95.52,-162.79,141.46
973.4,-170.50980392156862,313.0,-249.0,-169.14,-219.28,203.76
973.45,19.49019607843137,117.0,82.01960784313725,124.22,190.21,92.74
973.5,108.98039215686275,166.0,227.0,47.82,291.92,123.65
973.55,-4.0,-214.50980392156862,-36.490196078431374,114.25,261.29,78.92
973.6,-243.0,-225.0,-279.0,75.4,326.74,6.89
973.65,9.019607843137255,139.50980392156862,-307.5098039215686,53.42,-314.3,5.66
973.7,-54.98039215686274,-138.49019607843138,-187.0,102.31,-311.43,-8.19
973.75,317.52941176470586,-187.49019607843138,286.5098039215686,54.26,-231.81,-23.13
973.8,-64.47058823529412,145.01960784313727,119.0,56.39,-180.53,-40.98
973.85,-0.47058823529411764,276.01960784313724,-264.0,7.29,-46.76,7.34
973.9,-0.47058823529411764,-1.9803921568627452,224.50980392156862,-18.92,25.57,56.24
973.95,184.01960784313727,-219.49019607843138,147.50980392156862,-34.67,35.86,34.01
974.0,2.5098039215686274,319.5098039215686,89.0,-40.51,27.18,-1.33
974.05,304.5098039215686,-209.0,89.0,-58.68,54.2,-4.34
974.1,161.50980392156862,-290.0,43.0,-25.71,32.15,-2.59
974.15,129.50980392156862,172.50980392156862,89.0,11.03,3.03,-16.48
974.2,-45.490196078431374,221.50980392156862,-126.0,21.32,8.39,-10.32
974.25,311.01960784313724,41.509803921568626,150.0,-6.32,10.91,-4.97
974.3,-299.4901960784314,25.50980392156863,89.0,-3.31,-3.47,-7.07
974.35,-283.4901960784314,123.50980392156863,43.0,5.5,-13.2,-7.66
974.4,136.01960784313727,237.50980392156862,-246.50980392156862,-4.95,-14.07,-4.37
974.45,200.01960784313727,74.50980392156863,166.0,12.15,-21.84,-5.77
974.5,295.01960784313724,9.509803921568627,120.0,-3.55,-20.3,-1.36
974.55,311.01960784313724,-89.49019607843137,120.0,-2.36,-27.9,-7.14
974.6,231.01960784313727,25.50980392156863,120.0,-4.36,-29.47,-6.26
974.65,200.01960784313727,-7.490196078431373,166.0,5.5,-39.94,-10.08
974.7,152.01960784313727,-7.490196078431373,-33.0,-16.12,-25.27,-19.63
974.75,-22.980392156862745,-56.490196078431374,104.0,-22.24,6.6,-1.71
974.8,-38.98039215686274,-170.49019607843138,-33.0,-5.41,24.45,6.4
974.85,9.019607843137255,-72.49019607843137,-49.0,-15.24,39.22,8.74
974.9,152.01960784313727,-105.49019607843137,43.0,-15.21,43.21,11.33
974.95,200.01960784313727,-72.49019607843137,12.0,-14.05,43.49,11.58
975.0,104.01960784313725,107.50980392156863,166.0,-18.25,35.44,8.36
975.05,216.01960784313727,156.50980392156862,150.0,-17.06,18.43,7.03
975.1,295.01960784313724,41.509803921568626,58.0,0.01,-6.06,-3.92
975.15,295.01960784313724,74.50980392156863,-33.0,11.84,-11.34,-4.41
975.2,295.01960784313724,-7.490196078431373,-80.0,61.01,-15.75,-3.78
975.25,311.01960784313724,172.50980392156862,-233.0,72.91,-33.29,-26.14
975.3,-315.4901960784314,205.50980392156862,12.0,76.24,5.17,-35.17
975.35,200.01960784313727,-219.49019607843138,316.5098039215686,-133.86,149.26,-20.37
975.4,158.52941176470588,-83.98039215686275,270.5098039215686,-61.44,235.19,12.94
975.45,-6.980392156862745,-154.49019607843138,-86.98039215686275,-65.01,324.82,32.86
975.5,-54.98039215686274,-23.49019607843137,89.0,-93.5,-260.43,13.85
975.55,168.01960784313727,286.5098039215686,-246.50980392156862,-119.37,-199.99,-82.56
975.6,263.01960784313724,-307.0,-123.50980392156863,-141.38,-79.9,-128.27
975.65,216.01960784313727,19.0,18.980392156862745,-79.19,-258.89,-149.62
975.7,-11.509803921568627,215.0,230.49019607843138,-188.98,190.81,-62.93
975.75,51.490196078431374,-192.0,-242.01960784313727,-167.07,150.17,-181.58
975.8,108.98039215686275,-100.50980392156863,39.509803921568626,37.84,120.56,-196.28
975.85,163.49019607843138,-127.0,144.01960784313727,-1.14,76.64,8.22
975.9,-313.5098039215686,-133.50980392156862,12.0,-1.24,27.46,-0.49
975.95,-114.01960784313725,-67.50980392156863,73.0,6.41,3.35,-14.35
976.0,203.98039215686273,177.49019607843138,255.50980392156862,22.65,-10.12,6.96
976.05,-82.01960784313725,-51.509803921568626,286.5098039215686,21.22,-3.85,7.03
976.1,-305.01960784313724,-100.50980392156863,-264.0,15.9,-5.81,-11.76
976.15,274.4901960784314,-263.5098039215686,-218.0,15.06,-14.39,-24.95
976.2,-11.509803921568627,-280.5098039215686,-218.0,-6.6,-25.52,-50.43
976.25,313.0,166.0,-141.0,7.25,-17.68,-46.97
976.3,58.0,199.0,-33.0,-19.34,-2.45,-10.18
976.35,281.0,-143.0,120.0,-41.25,-16.0,26.21
976.4,-123.50980392156863,-176.0,227.0,41.55,-41.65,106.71
976.45,-186.50980392156862,166.0,-295.0,82.15,-61.81,84.06
976.5,-234.50980392156862,-231.50980392156862,224.50980392156862,19.71,-37.77,71.53
976.55,313.0,-84.50980392156863,-126.0,48.69,-84.25,80.14
976.6,-241.01960784313727,35.0,-295.0,93.49,-145.95,144.93
976.65,147.49019607843138,35.0,209.50980392156862,1.69,-219.63,213.53
976.7,-139.50980392156862,35.0,21.019607843137255,-67.64,-126.81,193.02
976.75,201.0,199.0,-283.4901960784314,136.16,18.11,84.66
976.8,-79.03921568627452,-225.0,-23.529411764705884,68.33,275.82,118.4
976.85,216.01960784313727,183.0,255.50980392156862,64.62,308.37,56.66
976.9,129.50980392156862,286.5098039215686,-276.5098039215686,28.81,-307.72,-47.74
976.95,174.52941176470588,-258.0,-261.5098039215686,93.39,321.14,-23.52
977.0,110.52941176470588,9.509803921568627,-175.49019607843138,109.49,-303.1,-41.44
977.05,-64.47058823529412,-252.49019607843138,-295.0,31.58,-212.45,-45.32
977.1,292.03921568627453,259.01960784313724,-126.0,7.74,-79.38,3.53
977.15,-0.47058823529411764,161.01960784313727,70.50980392156863,-1.0,-6.3,47.21
977.2,9.019607843137255,210.01960784313727,-236.49019607843138,-28.86,21.2,35.45
977.25,-204.49019607843138,286.5098039215686,-110.0,-55.56,37.26,-4.23
977.3,81.50980392156863,-209.0,-64.0,-73.83,37.96,-10.88
977.35,145.50980392156862,-307.0,-49.0,-20.25,21.23,-21.66
977.4,-45.490196078431374,-127.0,-233.0,1.37,23.68,-4.69
977.45,-267.4901960784314,237.50980392156862,27.0,-16.43,31.31,-1.01
977.5,-220.49019607843138,90.50980392156863,73.0,-1.59,15.11,0.34
977.55,-204.49019607843138,156.50980392156862,104.0,1.37,11.85,-0.24
977.6,-283.4901960784314,58.509803921568626,-3.0,-8.42,3.8,5.24
977.65,-188.49019607843138,-89.49019607843137,135.0,15.69,-10.61,1.81
977.7,-188.49019607843138,25.50980392156863,27.0,-22.94,8.25,1.81
977.75,57.01960784313726,74.50980392156863,273.0,18.24,-13.37,-0.03
977.8,231.01960784313727,188.50980392156862,73.0,-1.28,-14.6,0.69
977.85,279.01960784313724,41.509803921568626,43.0,-7.75,-8.26,3.46
977.9,247.01960784313727,-170.49019607843138,43.0,-0.65,-9.45,-4.51
977.95,120.01960784313725,-89.49019607843137,104.0,-7.72,1.98,-2.41
978.0,-101.98039215686275,-138.49019607843138,135.0,-5.48,9.19,-3.67
978.05,-6.980392156862745,-138.49019607843138,-79.0,-11.95,27.5,5.66
978.1,41.01960784313726,-203.49019607843138,-64.0,-17.83,38.87,13.43
978.15,57.01960784313726,-170.49019607843138,73.0,-11.15,38.56,21.24
978.2,72.01960784313725,-7.490196078431373,58.0,-13.74,31.42,17.49
978.25,120.01960784313725,123.50980392156863,58.0,-10.34,21.58,14.27
978.3,247.01960784313727,58.509803921568626,43.0,-10.31,9.65,14.17
978.35,295.01960784313724,123.50980392156863,120.0,-13.28,-1.82,2.86
978.4,-267.4901960784314,205.50980392156862,43.0,17.65,-14.49,-2.94
978.45,-220.49019607843138,237.50980392156862,-49.0,72.39,-30.52,-8.89
978.5,-13.490196078431373,254.50980392156862,-233.0,76.48,-35.53,-32.09
978.55,-220.49019607843138,221.50980392156862,-187.0,47.99,84.27,-21.63
978.6,152.01960784313727,-72.49019607843137,221.01960784313727,-93.08,182.06,-68.39
978.65,-143.47058823529412,-301.4901960784314,43.0,-133.79,267.53,-45.95
978.7,-111.47058823529412,-214.98039215686273,70.50980392156863,-58.12,305.05,40.28
978.75,301.52941176470586,227.01960784313727,-126.0,-89.51,-275.1,17.39
978.8,88.01960784313725,-274.0,-156.0,-113.7,-241.85,-77.38
978.85,-188.49019607843138,-160.0,58.0,-123.15,-171.36,-137.2
978.9,311.01960784313724,-62.0,215.49019607843138,-128.57,-199.39,-177.48
978.95,-36.0,101.0,-242.01960784313727,-227.59,261.37,-122.18
979.0,-218.50980392156862,-209.0,18.980392156862745,0.99,127.88,-167.4
979.05,197.47058823529412,-318.01960784313724,-70.98039215686275,-36.59,89.24,-252.7
979.1,-282.5098039215686,35.0,252.01960784313727,4.14,60.96,22.5
979.15,65.50980392156863,199.0,-83.49019607843137,68.15,-19.85,21.03
979.2,155.98039215686273,193.49019607843138,86.50980392156863,1.65,3.8,-14.17
979.25,171.98039215686273,-187.01960784313727,-95.0,30.98,-13.72,1.46
979.3,124.98039215686275,177.49019607843138,86.50980392156863,22.09,-8.05,-2.45
979.35,-273.01960784313724,-18.50980392156863,-295.0,11.31,-14.04,-22.43
979.4,131.49019607843138,-247.50980392156862,-233.0,26.19,-26.22,-44.27
979.45,-266.5098039215686,297.0,-218.0,-26.3,-1.12,-41.54
979.5,138.0,68.0,27.0,-65.75,29.6,19.21
979.55,-202.50980392156862,-13.0,227.0,-31.45,14.65,63.06
979.6,83.49019607843137,-225.0,-64.0,55.55,-19.15,113.22
979.65,-313.5098039215686,199.0,-218.0,72.49,-21.07,95.75
979.7,242.49019607843138,46.490196078431374,-95.0,21.04,-44.31,41.47
979.75,-161.01960784313727,-198.50980392156862,43.0,11.1,-41.34,55.22
979.8,4.490196078431373,-247.50980392156862,316.5098039215686,47.92,-68.08,65.76
979.85,-75.50980392156863,281.0,178.50980392156862,61.54,-94.64,79.02
979.9,-27.50980392156863,199.0,-310.0,25.59,-143.05,92.64
979.95,-139.50980392156862,52.0,239.50980392156862,63.11,-205.7,131.03
980.0,-43.509803921568626,-94.0,159.01960784313727,-113.52,-179.17,225.57
980.05,313.0,-45.0,278.52941176470586,127.41,234.55,134.18
980.1,-114.01960784313725,-111.0,-319.01960784313724,142.67,194.65,130.37
980.15,-107.50980392156863,19.0,-273.01960784313724,137.77,213.73,44.02
980.2,208.50980392156862,-192.0,-276.5098039215686,-22.17,-284.69,11.19
980.25,-95.47058823529412,172.50980392156862,-153.50980392156862,38.23,-318.33,12.03
980.3,-276.98039215686276,210.01960784313727,224.50980392156862,74.35,-303.03,-32.51
980.35,-111.47058823529412,292.01960784313724,-264.0,25.07,-202.41,-21.8
980.4,-159.47058823529412,145.01960784313727,43.0,30.74,-52.22,28.13
980.45,-64.47058823529412,63.01960784313726,-221.49019607843138,5.57,18.71,64.92
980.5,104.01960784313725,-154.49019607843138,-310.0,-58.01,45.42,-15.57
980.55,81.50980392156863,-192.0,-18.0,-69.7,53.82,-2.1
980.6,65.50980392156863,-258.0,27.0,-44.71,44.09,-16.66
980.65,129.50980392156862,-307.0,-187.0,1.97,14.86,-7.66
980.7,-45.490196078431374,286.5098039215686,-33.0,15.34,20.11,-7.42
980.75,-236.49019607843138,-258.0,58.0,-14.09,26.59,-1.96
980.8,-172.49019607843138,90.50980392156863,43.0,3.4,10.7,7.41
980.85,-236.49019607843138,58.509803921568626,58.0,16.46,3.31,-4.62
980.9,279.01960784313724,156.50980392156862,150.0,8.27,-5.95,0.17
980.95,247.01960784313727,107.50980392156863,181.0,28.39,-14.98,-17.18
981.0,216.01960784313727,286.5098039215686,196.0,3.12,-22.12,-6.65
981.05,231.01960784313727,-40.490196078431374,135.0,-14.58,-18.2,5.17
981.1,216.01960784313727,9.509803921568627,181.0,-20.98,-19.67,1.57
981.15,72.01960784313725,9.509803921568627,119.0,0.53,-30.73,-15.33
981.2,136.01960784313727,41.509803921568626,27.0,-3.83,-26.81,-14.35
981.25,57.01960784313726,-89.49019607843137,-79.0,-17.38,2.96,-10.01
981.3,-181.98039215686273,-187.49019607843138,58.0,-26.48,30.37,4.02
981.35,-101.98039215686275,-268.4901960784314,58.0,-16.43,36.74,11.16
981.4,9.019607843137255,-105.49019607843137,-64.0,-14.65,44.68,17.28
981.45,41.01960784313726,-23.49019607843137,-64.0,-21.72,38.87,17.98
981.5,88.01960784313725,58.509803921568626,89.0,-14.3,26.62,6.75
981.55,136.01960784313727,107.50980392156863,27.0,-22.91,16.93,4.82
981.6,231.01960784313727,-23.49019607843137,104.0,4.42,-7.39,-2.27
981.65,-220.49019607843138,107.50980392156863,-18.0,34.48,-33.04,-15.22
981.7,-172.49019607843138,221.50980392156862,-95.0,93.84,-52.43,-16.06
981.75,-45.490196078431374,254.50980392156862,255.50980392156862,48.34,-1.37,-28.42
981.8,311.01960784313724,74.50980392156863,-18.0,19.4,88.08,-0.66
981.85,25.019607843137255,-219.49019607843138,-190.49019607843138,-82.93,151.33,-48.33
981.9,-16.470588235294116,-72.49019607843137,163.50980392156862,-114.5,241.52,-25.58
981.95,-292.98039215686276,-115.98039215686275,70.50980392156863,-88.01,-306.28,56.38
982.0,-133.98039215686273,-219.49019607843138,-110.0,-84.86,-263.55,-6.72
982.05,216.01960784313727,-209.0,181.0,-66.55,-251.02,-121.31
982.1,-93.49019607843137,35.0,27.0,-143.41,-162.85,-127.85
982.15,-315.4901960784314,270.5098039215686,-289.01960784313724,-106.1,-252.94,-177.76
982.2,74.0,101.0,184.49019607843138,-158.67,252.09,-60.27
982.25,-59.509803921568626,84.0,169.49019607843138,-92.0,143.24,-247.41
982.3,-101.54901960784314,193.49019607843138,86.50980392156863,-19.3,170.44,-161.49
982.35,-241.01960784313727,-307.0,221.01960784313727,18.7,61.9,20.64
982.4,28.980392156862745,-198.50980392156862,-206.49019607843138,44.95,20.67,12.77
982.45,-161.01960784313727,79.49019607843137,316.5098039215686,10.23,16.82,-8.33
982.5,-130.01960784313727,30.49019607843137,27.0,23.18,2.4,-20.37
982.55,-177.01960784313727,-100.50980392156863,-249.0,2.77,1.14,-40.21
982.6,210.49019607843138,-198.50980392156862,-172.0,1.79,-15.37,-53.72
982.65,-107.50980392156863,-263.5098039215686,-126.0,8.62,-13.51,-43.47
982.7,186.0,150.0,-279.0,1.97,27.74,11.68
982.75,11.0,313.0,120.0,-26.37,7.37,29.39
982.8,163.49019607843138,205.50980392156862,-138.50980392156862,9.46,-21.67,46.96
982.85,99.49019607843137,-192.0,-203.0,57.23,-63.81,73.67
982.9,-225.01960784313727,-67.50980392156863,27.0,60.52,-90.02,30.3
982.95,187.98039215686273,-280.5098039215686,-49.0,25.24,-47.43,87.95
983.0,-305.01960784313724,248.0,-233.0,51.14,-80.4,99.81
983.05,99.49019607843137,313.0,-110.0,71.13,-114.87,138.56
983.1,-11.509803921568627,117.0,301.5098039215686,62.59,-150.19,154.03
983.15,-202.50980392156862,133.0,162.50980392156862,32.24,-190.02,192.88
983.2,106.0,117.0,39.509803921568626,-82.9,-300.16,126.38
983.25,-107.50980392156863,-78.0,-95.0,18.45,248.76,75.0
983.3,51.490196078431374,84.0,316.5098039215686,24.89,268.19,115.49
983.35,-179.0,254.50980392156862,-279.0,68.96,284.64,43.08
983.4,-77.49019607843137,-78.0,-36.490196078431374,73.02,283.03,-14.77
983.45,57.01960784313726,172.50980392156862,-280.0,68.57,-326.45,-27.96
983.5,-149.98039215686273,-285.4901960784314,193.50980392156862,37.07,-266.39,-48.02
983.55,-0.47058823529411764,178.01960784313727,-110.0,39.24,-182.6,-32.13
983.6,-48.470588235294116,259.01960784313724,255.50980392156862,56.39,-54.43,22.32
983.65,-292.98039215686276,31.019607843137255,-283.4901960784314,-24.83,12.76,96.91
983.7,247.01960784313727,-56.490196078431374,-95.0,-26.34,8.07,13.33
983.75,224.50980392156862,-78.0,-64.0,-90.0,50.25,18.02
983.8,97.50980392156863,-290.0,73.0,-55.07,30.61,14.48
983.85,240.50980392156862,-160.0,-80.0,-22.87,30.09,13.64
983.9,-13.490196078431373,-274.0,-156.0,-14.19,31.03,7.55
983.95,49.509803921568626,123.50980392156863,-156.0,-31.83,41.32,10.35
984.0,216.01960784313727,74.50980392156863,-49.0,-0.79,33.06,2.37
984.05,200.01960784313727,237.50980392156862,73.0,37.04,14.06,-23.27
984.1,-283.4901960784314,139.50980392156862,27.0,8.93,12.94,-21.66
984.15,231.01960784313727,107.50980392156863,27.0,-15.35,16.72,-8.68
984.2,120.01960784313725,-105.49019607843137,58.0,-6.18,5.1,-17.71
984.25,263.01960784313724,-72.49019607843137,-33.0,7.36,0.27,-19.14
984.3,216.01960784313727,-89.49019607843137,-3.0,-38.62,9.68,-1.01
984.35,120.01960784313725,-187.49019607843138,104.0,12.4,4.08,-3.57
984.4,-54.98039215686274,139.50980392156862,-233.0,78.69,9.58,16.16
984.45,263.01960784313724,-187.49019607843138,-95.0,34.34,50.63,32.37
984.5,-260.98039215686276,-170.49019607843138,-203.0,-105.3,74.85,117.14
984.55,-197.98039215686273,-89.49019607843137,-246.50980392156862,-40.3,122.45,213.46
984.6,-276.98039215686276,101.0,239.50980392156862,73.26,113.6,226.9
984.65,-133.98039215686273,166.0,301.5098039215686,68.99,103.48,241.91
984.7,-22.980392156862745,-45.0,-295.0,96.82,80.84,214.4
984.75,231.01960784313727,68.0,255.50980392156862,61.61,84.13,195.68
984.8,216.01960784313727,19.0,270.5098039215686,47.5,85.46,169.46
984.85,-252.49019607843138,-13.0,-310.0,28.71,89.27,136.84
984.9,-204.49019607843138,68.0,132.50980392156862,19.15,79.09,93.02
984.95,-61.490196078431374,199.0,39.509803921568626,-17.52,125.85,53.16
985.0,-13.490196078431373,150.0,101.50980392156863,38.82,60.08,78.57
985.05,34.509803921568626,248.0,209.50980392156862,-34.11,78.28,26.21
985.1,-188.49019607843138,52.0,24.50980392156863,-13.91,53.15,-4.48
985.15,-306.0,-133.50980392156862,-283.4901960784314,138.36,8.74,11.86
985.2,-211.0,62.490196078431374,221.01960784313727,52.12,22.81,-34.26
985.25,-147.0,-51.509803921568626,206.01960784313727,45.09,54.87,-55.05
985.3,-100.0,-182.50980392156862,252.01960784313727,76.76,30.26,19.14
985.35,-116.0,-214.50980392156862,-252.49019607843138,34.94,49.09,43.64
985.4,-211.0,215.0,-206.49019607843138,78.51,53.05,27.61
985.45,-163.0,232.0,-144.49019607843138,41.62,12.62,31.46
985.5,58.0,117.0,-36.490196078431374,57.72,14.9,24.74
985.55,-100.0,166.0,-175.49019607843138,92.65,44.47,16.58
985.6,-20.0,183.0,-175.49019607843138,60.38,33.73,14.1
985.65,42.0,-62.0,-160.49019607843138,25.73,6.67,4.82
985.7,90.0,-94.0,-129.49019607843138,63.67,8.46,14.06
985.75,42.0,-29.0,-267.4901960784314,56.67,10.14,34.22
985.8,42.0,-62.0,-221.49019607843138,50.76,0.34,35.1
985.85,74.0,-160.0,-252.49019607843138,34.94,-1.44,23.23
985.9,74.0,-127.0,-267.4901960784314,36.27,5.03,22.5
985.95,27.0,-192.0,-267.4901960784314,26.92,9.3,22.5
986.0,42.0,-274.0,-298.4901960784314,27.24,10.94,20.99
986.05,42.0,-307.0,-252.49019607843138,19.05,5.69,20.19
986.1,11.0,-307.0,-252.49019607843138,8.48,-3.15,12.21
986.15,11.0,-290.0,-298.4901960784314,7.67,-9.59,6.33
986.2,11.0,-307.0,313.01960784313724,4.94,-6.02,10.77
986.25,-4.0,303.5098039215686,282.01960784313724,-1.91,-8.75,9.9
986.3,11.0,221.50980392156862,298.01960784313724,3.33,-9.03,3.49
986.35,-4.0,319.5098039215686,313.01960784313724,4.38,-9.87,0.83
986.4,42.0,319.5098039215686,298.01960784313724,9.63,-9.21,-3.22
986.45,-36.0,303.5098039215686,-313.4901960784314,12.96,-5.08,-3.53
986.5,-52.0,303.5098039215686,313.01960784313724,0.36,-2.07,-3.57
986.55,-20.0,254.50980392156862,-267.4901960784314,-4.5,-1.96,-1.92
986.6,-36.0,303.5098039215686,-283.4901960784314,5.36,-2.42,-2.83
986.65,-20.0,286.5098039215686,313.01960784313724,4.14,0.62,-5.7
986.7,-4.0,303.5098039215686,-313.4901960784314,12.75,-5.46,-4.13
986.75,-4.0,286.5098039215686,298.01960784313724,9.18,-0.11,-2.03
986.8,11.0,237.50980392156862,-283.4901960784314,17.02,1.11,-5.21
986.85,11.0,254.50980392156862,-252.49019607843138,-11.32,2.86,-5.32
986.9,-68.0,156.50980392156862,-313.4901960784314,18.56,10.87,-11.97
986.95,11.0,319.5098039215686,298.01960784313724,-17.59,13.43,-9.8
987.0,58.0,254.50980392156862,-298.4901960784314,-10.69,4.57,7.52
987.05,42.0,172.50980392156862,-313.4901960784314,-9.54,3.91,7.06
987.1,42.0,237.50980392156862,-267.4901960784314,-13.77,1.63,5.98
987.15,42.0,254.50980392156862,-298.4901960784314,-10.55,1.95,2.41
987.2,27.0,303.5098039215686,-298.4901960784314,-6.11,3.7,4.19
987.25,27.0,286.5098039215686,298.01960784313724,-10.55,4.4,1.39
987.3,42.0,286.5098039215686,-313.4901960784314,-11.01,1.32,-0.24
987.35,42.0,286.5098039215686,-313.4901960784314,-13.6,2.12,1.36
987.4,27.0,303.5098039215686,313.01960784313724,-6.11,0.79,0.9
987.45,42.0,319.5098039215686,282.01960784313724,-14.75,2.16,4.44
987.5,58.0,303.5098039215686,298.01960784313724,-11.08,-0.14,3.25
987.55,58.0,-290.0,313.01960784313724,-8.56,0.34,4.96
987.6,58.0,-290.0,298.01960784313724,-11.04,-0.25,2.83
987.65,27.0,-274.0,313.01960784313724,-10.8,-1.09,2.9
987.7,27.0,-274.0,282.01960784313724,-13.56,0.02,5.98
987.75,42.0,-225.0,298.01960784313724,-14.54,-2.45,17.14
987.8,58.0,-274.0,267.01960784313724,-11.29,4.01,12.66
987.85,42.0,-143.0,236.01960784313727,6.45,-1.96,-13.16
987.9,-36.0,-209.0,-298.4901960784314,12.15,-0.04,-22.05
987.95,11.0,-192.0,267.01960784313724,4.21,-1.33,-6.09
988.0,42.0,-192.0,252.01960784313727,5.47,-0.11,-1.61
988.05,-20.0,-274.0,313.01960784313724,23.7,-11.59,5.24
988.1,11.0,-209.0,298.01960784313724,10.26,-10.57,17.53
988.15,11.0,319.5098039215686,267.01960784313724,58.21,-28.49,60.61
988.2,170.0,-127.0,-298.4901960784314,29.37,-12.64,33.87
988.25,-243.0,270.5098039215686,282.01960784313724,-1.59,-4.13,-0.91
988.3,-52.0,205.50980392156862,-267.4901960784314,-4.01,1.81,-17.74
988.35,-52.0,319.5098039215686,-298.4901960784314,-34.63,20.15,-30.62
988.4,-84.0,270.5098039215686,-298.4901960784314,-25.15,14.41,-22.75
988.45,-4.0,254.50980392156862,282.01960784313724,3.65,-0.42,-13.65
988.5,-4.0,270.5098039215686,298.01960784313724,8.44,11.82,12.8
988.55,-36.0,319.5098039215686,-313.4901960784314,-7.93,2.44,7.1
988.6,-20.0,205.50980392156862,-298.4901960784314,7.39,-5.29,-11.72
988.65,27.0,-274.0,282.01960784313724,9.07,-1.72,-11.72
988.7,11.0,319.5098039215686,282.01960784313724,-16.99,8.46,-5.67
988.75,-4.0,270.5098039215686,-313.4901960784314,3.54,-0.32,-7.49
988.8,27.0,-290.0,313.01960784313724,-7.89,5.1,-7.31
988.85,-20.0,303.5098039215686,-313.4901960784314,3.58,-6.06,1.08
988.9,-4.0,303.5098039215686,-298.4901960784314,-12.06,5.8,-3.53
988.95,-20.0,286.5098039215686,313.01960784313724,13.2,-1.96,17.07
989.0,27.0,-274.0,267.01960784313724,8.27,6.64,25.47
989.05,-68.0,319.5098039215686,-313.4901960784314,10.4,-12.39,36.67
989.1,27.0,221.50980392156862,-298.4901960784314,1.3,5.2,16.72
989.15,-52.0,254.50980392156862,313.01960784313724,-5.58,9.02,8.08
989.2,-52.0,270.5098039215686,282.01960784313724,18.24,0.72,-4.62
989.25,27.0,-225.0,282.01960784313724,-6.84,-2.1,-3.25
989.3,-20.0,237.50980392156862,-313.4901960784314,-9.22,2.61,-6.72
989.35,-20.0,286.5098039215686,282.01960784313724,-7.58,5.83,-1.12
989.4,-52.0,319.5098039215686,298.01960784313724,-27.91,10.0,12.52
989.45,-4.0,237.50980392156862,313.01960784313724,-16.57,1.11,0.17
989.5,11.0,-307.0,282.01960784313724,-17.52,2.58,-10.85
989.55,27.0,-307.0,313.01960784313724,-15.45,-3.89,-58.76
989.6,27.0,-307.0,313.01960784313724,-17.59,28.9,68.8
989.65,90.0,-209.0,-313.4901960784314,-3.62,-10.01,-4.23
989.7,42.0,-241.0,282.01960784313724,5.08,1.95,2.93
989.75,-20.0,-225.0,267.01960784313724,5.08,0.62,0.38
989.8,27.0,-307.0,298.01960784313724,7.95,-1.16,3.07
989.85,27.0,-274.0,298.01960784313724,15.76,-5.5,-2.03
989.9,27.0,-258.0,313.01960784313724,6.27,-1.37,1.18
989.95,27.0,-307.0,313.01960784313724,0.88,0.27,1.43
990.0,42.0,-290.0,-298.4901960784314,3.79,0.97,0.45
990.05,27.0,-258.0,-313.4901960784314,-4.32,2.65,2.02
990.1,27.0,-307.0,-313.4901960784314,-0.72,-0.32,-1.85
990.15,27.0,-258.0,-313.4901960784314,-6.07,-0.77,0.8
990.2,27.0,-290.0,-298.4901960784314,-4.08,-3.71,-5.35
990.25,58.0,-274.0,-313.4901960784314,-20.14,-8.26,-12.6
990.3,42.0,-290.0,-298.4901960784314,27.03,-33.46,-15.5
990.35,58.0,-225.0,-313.4901960784314,-61.41,-13.41,-45.46
990.4,27.0,319.5098039215686,-206.49019607843138,-7.89,-32.17,-35.49
990.45,122.0,-111.0,282.01960784313724,-23.08,-33.11,-26.67
990.5,42.0,-225.0,298.01960784313724,-15.45,-27.51,-30.62
990.55,-4.0,-143.0,236.01960784313727,-18.43,-20.62,-26.74
990.6,42.0,-241.0,252.01960784313727,-4.32,-7.32,-31.6
990.65,-36.0,-176.0,236.01960784313727,14.08,-12.46,-36.61
990.7,-100.0,-94.0,206.01960784313727,-3.55,-6.3,-29.36
990.75,-195.0,-225.0,221.01960784313727,-2.36,-2.52,-25.51
990.8,-179.0,-209.0,236.01960784313727,1.58,-1.23,-16.06
990.85,-195.0,-192.0,252.01960784313727,-4.57,-1.37,-1.33
990.9,-163.0,-274.0,-298.4901960784314,9.14,-4.13,2.51
990.95,-116.0,-241.0,-313.4901960784314,-6.67,1.14,8.92
991.0,-100.0,319.5098039215686,-283.4901960784314,2.21,-0.14,9.44
991.05,-68.0,-274.0,-313.4901960784314,-1.42,7.55,12.0
991.1,-68.0,-241.0,-313.4901960784314,-14.09,14.06,19.0
991.15,-84.0,-307.0,-313.4901960784314,-7.93,13.74,23.23
991.2,-52.0,-258.0,313.01960784313724,-12.2,16.54,28.1
991.25,-52.0,-307.0,-298.4901960784314,-8.14,17.03,24.98
991.3,-36.0,-241.0,313.01960784313724,-3.31,20.32,25.26
991.35,-36.0,-258.0,298.01960784313724,-10.62,26.94,30.2
991.4,-52.0,-274.0,236.01960784313727,-18.29,27.46,27.54
991.45,-52.0,-274.0,252.01960784313727,-18.6,20.15,8.99
991.5,-52.0,-176.0,190.01960784313727,-25.64,10.28,6.96
991.55,-68.0,-29.0,190.01960784313727,-53.01,6.88,20.22
991.6,-52.0,-78.0,-283.4901960784314,-24.83,-12.46,16.9
991.65,27.0,52.0,-221.49019607843138,4.38,-29.82,11.79
991.7,138.0,133.0,-267.4901960784314,4.03,-41.44,-3.95
991.75,122.0,199.0,282.01960784313724,-25.85,-28.04,0.62
991.8,58.0,35.0,252.01960784313727,-8.87,-20.51,10.32
991.85,58.0,84.0,206.01960784313727,-18.57,-15.09,15.43
991.9,42.0,-45.0,252.01960784313727,-6.21,-21.14,8.81
991.95,11.0,19.0,267.01960784313724,-24.24,-28.11,-1.43
992.0,-20.0,-94.0,-283.4901960784314,-31.03,-45.85,-20.75
992.05,-68.0,-62.0,-283.4901960784314,-76.7,-67.83,-56.98
992.1,-179.0,-176.0,-113.49019607843137,-135.08,-82.95,-105.38
992.15,304.5098039215686,-192.0,-6.490196078431373,-157.76,-85.4,-165.02
992.2,49.509803921568626,-62.0,55.509803921568626,-166.76,-86.0,-242.62
992.25,-236.49019607843138,19.0,116.50980392156863,-164.59,-88.03,-318.81
992.3,41.01960784313726,150.0,116.50980392156863,-163.43,-90.16,327.17
992.35,142.52941176470588,313.0,224.50980392156862,-115.94,-70.07,-241.08
992.4,126.52941176470588,-84.50980392156863,39.509803921568626,55.69,-82.5,-124.18
992.45,200.01960784313727,-2.5098039215686274,-252.49019607843138,50.13,-43.86,-41.4
992.5,-315.4901960784314,-198.50980392156862,39.509803921568626,-23.29,-15.72,-13.3
992.55,-299.4901960784314,199.0,55.509803921568626,-29.52,-13.79,-2.59
992.6,-93.49019607843137,-312.5098039215686,-36.490196078431374,87.82,-17.57,23.93
992.65,-61.490196078431374,-67.50980392156863,-113.49019607843137,149.25,-0.7,66.98
992.7,-140.49019607843138,-182.50980392156862,-113.49019607843137,145.22,23.3,102.79
992.75,-315.4901960784314,297.0,-83.49019607843137,131.36,60.33,139.05
992.8,216.01960784313727,248.0,9.509803921568627,135.77,62.53,139.08
992.85,247.01960784313727,232.0,163.50980392156862,125.41,51.89,121.09
992.9,295.01960784313724,199.0,270.5098039215686,137.94,29.39,90.36
992.95,-283.4901960784314,248.0,-233.0,152.96,18.05,32.96
993.0,25.019607843137255,313.0,-295.0,172.77,39.89,26.73
993.05,-38.98039215686274,-214.50980392156862,301.5098039215686,169.44,70.37,60.44
993.1,88.01960784313725,-182.50980392156862,-172.0,82.05,87.84,96.0
993.15,-70.98039215686275,-263.5098039215686,12.0,18.21,63.34,128.06
993.2,41.01960784313726,-263.5098039215686,73.0,-17.41,23.26,143.07
993.25,104.01960784313725,-247.50980392156862,89.0,82.5,-50.4,142.37
993.3,231.01960784313727,-133.50980392156862,58.0,181.52,-86.84,155.08
993.35,216.01960784313727,-67.50980392156863,-18.0,212.11,-72.24,175.41
993.4,-22.980392156862745,-149.50980392156862,-110.0,171.61,-46.2,192.67
993.45,-149.98039215686273,-296.5098039215686,-110.0,130.03,-29.86,200.93
993.5,-181.98039215686273,281.0,-218.0,125.34,-25.24,201.73
993.55,-6.980392156862745,281.0,-233.0,123.77,-24.78,192.28
993.6,88.01960784313725,248.0,-233.0,103.15,-19.36,166.94
993.65,152.01960784313727,166.0,-187.0,52.65,-15.65,130.75
993.7,168.01960784313727,52.0,-172.0,-3.52,-37.8,68.28
993.75,216.01960784313727,-29.0,-95.0,6.8,-92.89,14.87
993.8,168.01960784313727,-29.0,-64.0,141.83,-123.2,6.15
993.85,-283.4901960784314,166.0,162.50980392156862,143.09,-84.91,3.28
993.9,295.01960784313724,19.0,-252.49019607843138,1.37,-46.34,-15.54
993.95,-252.49019607843138,107.50980392156863,-206.49019607843138,11.59,-46.73,-47.18
994.0,-61.490196078431374,-290.0,190.01960784313727,57.86,-19.11,-95.13
994.05,-124.49019607843137,-94.0,113.01960784313725,4.87,10.66,-123.51
994.1,-77.49019607843137,-160.0,267.01960784313724,-41.63,36.56,-124.18
994.15,-93.49019607843137,3.0,-267.4901960784314,-77.12,59.0,-98.1
994.2,-172.49019607843138,166.0,-98.49019607843137,-86.85,53.89,-49.1
994.25,-188.49019607843138,297.0,101.50980392156863,-33.23,19.48,-9.2
994.3,-172.49019607843138,-231.50980392156862,209.50980392156862,69.97,-37.7,2.58
994.35,-204.49019607843138,-67.50980392156863,316.5098039215686,109.98,-60.38,46.44
994.4,231.01960784313727,-67.50980392156863,163.50980392156862,163.84,-56.32,108.49
994.45,247.01960784313727,-67.50980392156863,301.5098039215686,219.14,-53.73,168.1
994.5,279.01960784313724,-67.50980392156863,178.50980392156862,200.77,-0.49,218.11
994.55,152.01960784313727,-214.50980392156862,270.5098039215686,69.38,49.13,215.45
994.6,57.01960784313726,117.0,193.50980392156862,15.27,52.8,207.65
994.65,41.01960784313726,52.0,209.50980392156862,19.01,56.16,180.77
994.7,41.01960784313726,133.0,116.50980392156863,-3.13,59.24,149.48
994.75,184.01960784313727,52.0,178.50980392156862,-18.88,45.28,104.36
994.8,-299.4901960784314,-62.0,209.50980392156862,-12.02,39.96,45.63
994.85,-252.49019607843138,-94.0,101.50980392156863,-11.78,33.03,-23.59
994.9,-267.4901960784314,-160.0,70.50980392156863,-16.15,7.55,-114.97
994.95,216.01960784313727,-111.0,101.50980392156863,-7.75,-15.12,-164.81
995.0,231.01960784313727,35.0,9.509803921568627,3.68,-29.19,-180.39
995.05,-61.490196078431374,35.0,-36.490196078431374,-55.67,-5.11,-189.73
995.1,311.01960784313724,19.0,70.50980392156863,-90.0,-1.23,-190.08
995.15,247.01960784313727,166.0,147.50980392156862,-84.72,-2.73,-176.01
995.2,311.01960784313724,297.0,163.50980392156862,-77.89,-3.5,-154.21
995.25,-283.4901960784314,313.0,193.50980392156862,-95.81,-2.63,-121.97
995.3,-220.49019607843138,-296.5098039215686,224.50980392156862,-98.61,-3.01,-91.1
995.35,-156.49019607843138,-247.50980392156862,163.50980392156862,-65.43,-10.54,-66.15
995.4,-61.490196078431374,-214.50980392156862,39.509803921568626,-34.0,-20.97,-41.61
995.45,-77.49019607843137,-214.50980392156862,55.509803921568626,-20.25,-36.23,-21.63
995.5,-156.49019607843138,-198.50980392156862,39.509803921568626,53.87,-59.08,-10.64
995.55,-299.4901960784314,-133.50980392156862,-36.490196078431374,77.32,-31.57,43.5
995.6,231.01960784313727,-100.50980392156863,-190.49019607843138,113.02,-13.93,109.33
995.65,184.01960784313727,-165.50980392156862,-6.490196078431373,90.73,18.01,159.8
995.7,57.01960784313726,-312.5098039215686,-36.490196078431374,101.75,44.93,199.88
995.75,231.01960784313727,281.0,86.50980392156863,34.48,76.99,196.48
995.8,104.01960784313725,52.0,70.50980392156863,17.23,75.2,170.2
995.85,216.01960784313727,52.0,86.50980392156863,2.07,68.45,138.0
995.9,-315.4901960784314,35.0,209.50980392156862,11.8,47.27,98.94
995.95,-124.49019607843137,52.0,286.5098039215686,22.27,20.01,33.21
996.0,-77.49019607843137,52.0,286.5098039215686,22.9,3.63,-16.59
996.05,-61.490196078431374,35.0,224.50980392156862,0.36,-0.95,-59.92
996.1,-172.49019607843138,19.0,209.50980392156862,-44.33,-13.62,-124.0
996.15,231.01960784313727,19.0,224.50980392156862,-42.54,-37.49,-144.27
996.2,263.01960784313724,150.0,147.50980392156862,9.63,-54.43,-127.26
996.25,-108.49019607843137,215.0,9.509803921568627,-58.43,-28.49,-133.98
996.3,311.01960784313724,35.0,-36.490196078431374,-115.1,-15.09,-138.39
996.35,-252.49019607843138,52.0,24.50980392156863,-94.55,-14.0,-140.73
996.4,-220.49019607843138,248.0,39.509803921568626,-51.85,-21.0,-135.2
996.45,-172.49019607843138,313.0,39.509803921568626,-58.82,-20.06,-112.77
996.5,-156.49019607843138,281.0,39.509803921568626,-46.6,-17.57,-90.09
996.55,-156.49019607843138,-312.5098039215686,-6.490196078431373,-39.99,-17.01,-56.56
996.6,-77.49019607843137,-296.5098039215686,-21.49019607843137,-26.37,-16.42,-26.74
996.65,-188.49019607843138,-247.50980392156862,-67.49019607843137,10.37,-28.81,-1.68
996.7,-252.49019607843138,-214.50980392156862,-83.49019607843137,50.97,3.7,46.09
996.75,104.01960784313725,-133.50980392156862,-252.49019607843138,89.26,24.84,106.88
996.8,231.01960784313727,-165.50980392156862,-129.49019607843138,75.33,49.69,147.24
996.85,136.01960784313727,-312.5098039215686,24.50980392156863,37.84,72.51,174.78
996.9,152.01960784313727,232.0,116.50980392156863,25.77,74.12,180.28
996.95,231.01960784313727,215.0,270.5098039215686,-5.09,68.94,164.7
997.0,216.01960784313727,166.0,301.5098039215686,-3.2,52.91,145.35
997.05,295.01960784313724,183.0,316.5098039215686,-12.13,36.0,122.42
997.1,-252.49019607843138,101.0,-295.0,-0.93,11.92,88.96
997.15,-108.49019607843137,84.0,301.5098039215686,17.3,-13.76,31.7
997.2,-93.49019607843137,35.0,224.50980392156862,15.37,-29.16,-45.11
997.25,-93.49019607843137,19.0,39.509803921568626,-10.73,-34.41,-118.79
997.3,-188.49019607843138,-78.0,101.50980392156863,-25.74,-35.32,-171.5
997.35,152.01960784313727,19.0,-52.490196078431374,-10.55,-58.38,-179.93
997.4,-204.49019607843138,101.0,-6.490196078431373,-1.35,-48.34,-180.56
997.45,263.01960784313724,150.0,-113.49019607843137,-85.98,-16.94,-162.92
997.5,200.01960784313727,68.0,39.509803921568626,-107.89,-5.5,-135.03
997.55,311.01960784313724,215.0,101.50980392156863,-58.36,-8.86,-113.26
997.6,-204.49019607843138,-214.50980392156862,132.50980392156862,-52.59,-10.15,-88.2
997.65,-204.49019607843138,-263.5098039215686,162.50980392156862,-41.63,-22.61,-48.96
997.7,-93.49019607843137,-247.50980392156862,132.50980392156862,13.27,-23.0,-20.86
997.75,-45.490196078431374,-214.50980392156862,9.509803921568627,74.66,-25.52,2.51
997.8,-45.490196078431374,-198.50980392156862,-21.49019607843137,31.61,-24.99,33.07
997.85,-156.49019607843138,313.0,-6.490196078431373,63.01,-30.84,54.59
997.9,-315.4901960784314,281.0,-37.490196078431374,152.05,-4.8,93.97
997.95,104.01960784313725,-149.50980392156862,-190.49019607843138,172.38,42.3,138.17
998.0,-6.980392156862745,281.0,-6.490196078431373,231.15,84.58,172.19
998.05,-38.98039215686274,313.0,-21.49019607843137,263.59,123.68,184.76
998.1,-6.980392156862745,313.0,101.50980392156863,253.79,153.32,186.58
998.15,57.01960784313726,297.0,116.50980392156863,189.53,162.46,164.91
998.2,184.01960784313727,232.0,147.50980392156862,150.58,145.45,144.82
998.25,-299.4901960784314,215.0,147.50980392156862,106.9,127.11,128.9
998.3,-124.49019607843137,68.0,178.50980392156862,119.08,90.25,103.03
998.35,34.509803921568626,52.0,39.509803921568626,89.92,72.02,77.17
998.4,18.50980392156863,-78.0,-113.49019607843137,35.67,44.44,31.46
998.45,34.509803921568626,-258.0,-113.49019607843137,-9.82,42.09,19.31
998.5,18.50980392156863,303.5098039215686,-267.4901960784314,27.31,30.72,32.61
998.55,272.5098039215686,319.5098039215686,-190.49019607843138,5.85,29.53,15.74
998.6,224.50980392156862,221.50980392156862,-160.49019607843138,-3.8,25.01,2.86
998.65,-306.0,237.50980392156862,-113.49019607843137,-0.19,16.82,-5.7
998.7,-227.0,270.5098039215686,-160.49019607843138,-7.05,16.58,-11.34
998.75,-163.0,237.50980392156862,-144.49019607843138,-4.95,14.9,-10.64
998.8,-131.0,303.5098039215686,-236.49019607843138,-7.51,17.98,-0.84
998.85,-116.0,303.5098039215686,-237.49019607843138,1.2,18.01,9.23
998.9,-100.0,303.5098039215686,-283.4901960784314,-0.86,19.17,14.41
998.95,-52.0,319.5098039215686,-298.4901960784314,-11.32,22.35,35.87
999.0,-4.0,303.5098039215686,267.01960784313724,-1.03,1.0,30.41
999.05,42.0,-258.0,221.01960784313727,-9.22,-0.35,40.63
999.1,-20.0,-209.0,159.01960784313727,-10.34,-19.92,14.8
999.15,-20.0,-45.0,144.01960784313727,8.72,-10.22,31.39
999.2,-100.0,-78.0,190.01960784313727,-1.31,-0.74,41.99
999.25,-131.0,-176.0,282.01960784313724,15.51,-8.26,23.41
999.3,-147.0,-176.0,-206.49019607843138,-32.39,-13.16,-3.85
999.35,-195.0,-290.0,-113.49019607843137,-68.13,-20.02,-28.24
999.4,-195.0,-274.0,-37.490196078431374,-110.27,-42.28,-55.58
999.45,-211.0,-225.0,-6.490196078431373,-130.29,-58.73,-87.67
999.5,288.5098039215686,-176.0,9.509803921568627,-77.93,-89.32,-129.22
999.55,81.50980392156863,52.0,-67.49019607843137,-118.46,-138.22,-197.78
999.6,-124.49019607843137,-29.0,-6.490196078431373,-207.15,-122.78,-246.92
999.65,25.019607843137255,-62.0,-67.49019607843137,-142.54,-114.49,-242.72
999.7,216.01960784313727,133.0,-98.49019607843137,-139.11,-88.24,-224.52
999.75,-6.980392156862745,133.0,-98.49019607843137,-180.9,-49.67,-198.83
999.8,72.01960784313725,150.0,-6.490196078431373,-194.65,-28.56,-170.1
999.85,216.01960784313727,264.0,101.50980392156863,-157.8,-17.64,-146.82
999.9,311.01960784313724,-214.50980392156862,147.50980392156862,-96.02,-20.79,-107.34
999.95,-236.49019607843138,-100.50980392156863,116.50980392156863,-64.35,-26.88,-69.19
1000.0,-140.49019607843138,-149.50980392156862,132.50980392156862,-31.03,-27.09,-37.31
1000.05,-77.49019607843137,-133.50980392156862,-6.490196078431373,-14.16,-28.18,-5.25
1000.1,-108.49019607843137,-165.50980392156862,9.509803921568627,26.01,-39.55,33.42
1000.15,-156.49019607843138,-182.50980392156862,-36.490196078431374,107.77,-22.05,64.43
1000.2,168.01960784313727,-67.50980392156863,-237.49019607843138,77.92,11.54,140.83
1000.25,41.01960784313726,-280.5098039215686,-83.49019607843137,122.33,17.87,171.81
1000.3,216.01960784313727,-312.5098039215686,9.509803921568627,168.67,42.58,159.98
1000.35,57.01960784313726,-280.5098039215686,-6.490196078431373,103.05,66.24,145.73
1000.4,184.01960784313727,101.0,255.50980392156862,65.25,63.58,124.03
1000.45,231.01960784313727,117.0,286.5098039215686,63.81,50.53,100.86
1000.5,311.01960784313724,183.0,-249.0,58.7,34.71,80.91
1000.55,-252.49019607843138,199.0,-141.0,42.22,15.32,69.12
1000.6,-220.49019607843138,166.0,-172.0,49.85,-14.77,44.79
1000.65,-220.49019607843138,166.0,-203.0,38.68,-25.34,28.69
1000.7,-283.4901960784314,166.0,316.5098039215686,8.76,-39.8,-10.78
1000.75,279.01960784313724,52.0,239.50980392156862,-10.62,-47.39,-7.24
1000.8,-299.4901960784314,68.0,9.509803921568627,46.28,-70.42,7.06
1000.85,65.50980392156863,52.0,-206.49019607843138,49.99,-45.78,-4.06
1000.9,-124.49019607843137,19.0,-298.4901960784314,-41.46,-22.51,-6.96
1000.95,-77.49019607843137,-111.0,-221.49019607843138,-27.63,-18.45,-1.99
1001.0,65.50980392156863,183.0,-206.49019607843138,39.03,-24.43,8.04
1001.05,97.50980392156863,-263.5098039215686,-160.49019607843138,33.99,-28.11,21.31
1001.1,161.50980392156862,297.0,-21.49019607843137,47.99,-34.65,38.18
1001.15,161.50980392156862,-296.5098039215686,-6.490196078431373,55.9,-35.42,43.74
1001.2,145.50980392156862,-280.5098039215686,101.50980392156863,53.59,-40.15,47.56
1001.25,49.509803921568626,-312.5098039215686,209.50980392156862,54.43,-36.47,45.04
1001.3,-93.49019607843137,313.0,316.5098039215686,47.82,-24.99,33.0
1001.35,231.01960784313727,297.0,224.50980392156862,22.44,-10.78,1.64
1001.4,168.01960784313727,150.0,-233.0,-3.2,-8.4,-10.5
1001.45,88.01960784313725,117.0,-203.0,-21.4,5.66,-43.82
1001.5,-245.98039215686273,35.0,-295.0,-39.64,-0.25,-21.1
1001.55,-70.98039215686275,-231.50980392156862,-18.0,-106.0,-32.66,68.66
1001.6,104.01960784313725,199.0,27.0,159.99,-9.7,32.47
1001.65,-292.98039215686276,-286.01960784313724,70.50980392156863,-104.25,6.78,66.14
1001.7,216.01960784313727,-219.49019607843138,270.5098039215686,-43.59,18.71,36.85
1001.75,216.01960784313727,95.49019607843137,193.50980392156862,-101.38,33.45,34.05
1001.8,311.01960784313724,-182.50980392156862,193.50980392156862,-44.68,20.67,19.73
1001.85,-267.4901960784314,-280.5098039215686,-36.490196078431374,-69.42,-13.9,17.42
1001.9,295.01960784313724,-231.50980392156862,-218.0,-7.86,23.16,69.85
1001.95,-220.49019607843138,128.49019607843138,0.49019607843137253,143.82,-54.01,91.69
1002.0,-283.4901960784314,-2.5098039215686274,-141.0,66.54,-47.67,56.06
1002.05,-45.490196078431374,128.49019607843138,43.0,24.26,-70.84,75.28
1002.1,-220.49019607843138,215.0,147.50980392156862,55.06,-107.17,75.42
1002.15,49.509803921568626,-236.01960784313727,-279.0,34.52,-111.62,75.7
1002.2,240.50980392156862,209.49019607843138,-156.0,66.02,-132.37,87.56
1002.25,-275.0,79.49019607843137,-172.0,74.31,-139.09,125.29
1002.3,-100.0,307.4901960784314,-18.0,82.57,-125.27,162.67
1002.35,-211.0,-138.01960784313727,-3.0,107.46,-121.0,191.9
1002.4,-290.0,-138.01960784313727,-33.0,81.8,-95.48,183.99
1002.45,-13.490196078431373,-204.01960784313727,89.0,49.46,-51.24,150.28
1002.5,65.50980392156863,-302.01960784313724,-233.0,-66.83,-51.0,87.04
1002.55,256.5098039215686,-84.50980392156863,-203.0,-98.16,-103.18,23.79
1002.6,186.0,291.4901960784314,319.0,-10.73,-141.26,-10.92
1002.65,240.50980392156862,258.4901960784314,119.0,64.44,-121.45,-12.32
1002.7,224.50980392156862,-122.01960784313725,-264.0,33.61,-82.22,-7.87
1002.75,288.5098039215686,209.49019607843138,-18.0,32.38,-66.68,31.04
1002.8,-68.0,226.49019607843138,55.509803921568626,85.72,-52.68,23.3
1002.85,193.50980392156862,-236.01960784313727,286.5098039215686,63.85,-52.29,4.19
1002.9,-227.0,46.490196078431374,193.50980392156862,28.32,-55.72,-9.48
1002.95,-163.0,-116.50980392156863,270.5098039215686,13.1,-51.8,-6.65
1003.0,-36.0,-51.509803921568626,163.50980392156862,-12.62,-49.42,12.91
1003.05,-52.0,-2.5098039215686274,286.5098039215686,-3.59,-54.95,52.74
1003.1,27.0,128.49019607843138,-310.0,-0.12,-52.05,88.58
1003.15,42.0,-220.01960784313727,301.5098039215686,40.01,-78.86,107.62
1003.2,74.0,73.98039215686275,39.509803921568626,54.29,-105.6,57.71
1003.25,-243.0,-220.01960784313727,224.50980392156862,51.35,-100.94,-12.95
1003.3,256.5098039215686,-296.5098039215686,193.50980392156862,-20.74,-83.23,-65.97
1003.35,-243.0,-116.50980392156863,-203.0,6.9,-85.23,-70.63
1003.4,-163.0,95.49019607843137,316.5098039215686,27.06,-89.22,-88.48
1003.45,-116.0,-18.50980392156863,-187.0,18.63,-93.63,-102.2
1003.5,-211.0,13.490196078431373,-249.0,22.09,-87.92,-116.97
1003.55,145.50980392156862,46.490196078431374,239.50980392156862,12.08,-74.17,-122.22
1003.6,-140.49019607843138,111.49019607843137,-203.0,-16.26,-45.36,-112.73
1003.65,295.01960784313724,46.490196078431374,-141.0,-29.87,-6.34,-92.19
1003.7,88.01960784313725,209.49019607843138,-187.0,2.7,19.34,-74.58
1003.75,25.019607843137255,242.49019607843138,-233.0,36.41,22.67,-36.5
1003.8,136.01960784313727,-35.509803921568626,116.50980392156863,44.25,43.7,-15.54
1003.85,311.01960784313724,-312.5098039215686,101.50980392156863,-127.77,115.77,-30.17
1003.9,-220.49019607843138,9.509803921568627,-298.4901960784314,-69.11,76.67,-37.1
1003.95,113.50980392156863,-280.5098039215686,-310.0,-93.08,58.47,-26.84
1004.0,65.50980392156863,-116.50980392156863,-203.0,-111.07,29.84,-11.23
1004.05,81.50980392156863,-214.50980392156862,-218.0,-73.94,1.88,-0.24
1004.1,49.509803921568626,-133.50980392156862,239.50980392156862,-37.12,-14.21,14.69
1004.15,65.50980392156863,-133.50980392156862,86.50980392156863,-20.88,-16.45,25.93
1004.2,2.5098039215686274,-84.50980392156863,86.50980392156863,-38.9,8.74,21.2
1004.25,-220.49019607843138,-182.50980392156862,-160.49019607843138,-7.44,-10.15,18.75
1004.3,-124.49019607843137,30.49019607843137,-52.490196078431374,26.01,-48.16,1.95
1004.35,-77.49019607843137,307.4901960784314,-295.0,36.09,-46.13,2.55
1004.4,-140.49019607843138,-84.50980392156863,-187.0,53.31,-40.15,-11.9
1004.45,-172.49019607843138,-214.50980392156862,-279.0,36.86,-29.33,-18.44
1004.5,-236.49019607843138,-198.50980392156862,-264.0,66.93,-32.62,-14.42
1004.55,311.01960784313724,-116.50980392156863,-203.0,77.32,-35.11,-14.87
1004.6,-315.4901960784314,-198.50980392156862,-203.0,62.13,-24.82,-16.9
1004.65,-252.49019607843138,-263.5098039215686,-249.0,46.45,-17.61,-22.64
1004.7,-220.49019607843138,-263.5098039215686,-218.0,40.57,-11.66,-21.94
1004.75,-204.49019607843138,-231.50980392156862,-203.0,28.39,-2.21,-24.46
1004.8,-236.49019607843138,-231.50980392156862,-141.0,36.58,5.69,-28.35
1004.85,279.01960784313724,-247.50980392156862,-95.0,31.51,14.41,-51.17
1004.9,200.01960784313727,264.0,-126.0,31.05,5.31,-66.6
1004.95,120.01960784313725,183.0,316.5098039215686,24.79,-3.47,-33.67
1005.0,295.01960784313724,3.0,163.50980392156862,-32.81,17.63,-27.86
1005.05,279.01960784313724,-29.0,224.50980392156862,-46.71,20.01,-16.24
1005.1,-236.49019607843138,3.0,286.5098039215686,-42.3,11.71,-9.55
1005.15,-108.49019607843137,133.0,-295.0,-34.7,-1.4,-10.01
1005.2,-77.49019607843137,232.0,286.5098039215686,-23.92,-15.82,0.1
1005.25,-124.49019607843137,215.0,-295.0,-13.6,-24.68,5.84
1005.3,-172.49019607843138,183.0,224.50980392156862,-17.31,-22.51,9.58
1005.35,-220.49019607843138,101.0,209.50980392156862,-17.97,-20.48,3.11
1005.4,295.01960784313724,150.0,209.50980392156862,1.55,-34.72,-2.76
1005.45,279.01960784313724,150.0,178.50980392156862,9.07,-46.97,-19.98
1005.5,200.01960784313727,183.0,193.50980392156862,5.26,-21.7,-0.63
1005.55,-54.98039215686274,183.0,-264.0,47.22,-28.88,16.06
1005.6,247.01960784313727,133.0,163.50980392156862,15.16,1.84,6.64
1005.65,231.01960784313727,19.0,301.5098039215686,8.02,15.88,5.35
1005.7,279.01960784313724,19.0,-249.0,16.74,11.64,7.31
1005.75,295.01960784313724,101.0,-110.0,16.91,9.86,-2.48
1005.8,-315.4901960784314,101.0,-64.0,13.52,9.54,-10.22
1005.85,-267.4901960784314,133.0,-141.0,1.79,14.13,-17.01
1005.9,-283.4901960784314,117.0,-156.0,0.95,16.47,-20.09
1005.95,-283.4901960784314,150.0,-279.0,-13.04,22.91,-25.41
1006.0,263.01960784313724,133.0,-218.0,-13.04,25.64,-22.01
1006.05,184.01960784313727,133.0,-295.0,-39.92,24.42,-35.35
1006.1,57.01960784313726,84.0,-264.0,-22.07,23.12,-5.49
1006.15,9.019607843137255,52.0,286.5098039215686,-16.22,24.17,18.79
1006.2,-252.49019607843138,-176.0,163.50980392156862,-57.87,31.84,-2.1
1006.25,-299.4901960784314,-127.0,270.5098039215686,-56.44,11.85,-12.07
1006.3,-140.49019607843138,-13.0,-295.0,-57.84,-2.84,-16.27
1006.35,-93.49019607843137,84.0,-218.0,-39.04,-21.07,-20.02
1006.4,-156.49019607843138,166.0,-233.0,-17.2,-34.16,-12.11
1006.45,-188.49019607843138,183.0,270.5098039215686,-16.01,-29.93,-5.32
1006.5,-204.49019607843138,133.0,132.50980392156862,-18.74,-20.62,-4.37
1006.55,-220.49019607843138,101.0,132.50980392156862,-0.26,-30.14,-7.98
1006.6,-299.4901960784314,101.0,255.50980392156862,9.81,-44.98,-23.94
1006.65,247.01960784313727,183.0,301.5098039215686,-4.43,-27.48,-23.17
1006.7,-70.98039215686275,166.0,-172.0,35.95,-28.74,19.87
1006.75,200.01960784313727,3.0,270.5098039215686,5.75,-0.07,17.84
1006.8,152.01960784313727,-94.0,-249.0,10.16,11.01,21.48
1006.85,200.01960784313727,-127.0,-264.0,4.42,17.45,22.6
1006.9,263.01960784313724,-94.0,-172.0,-1.63,20.08,16.9
1006.95,-283.4901960784314,3.0,-95.0,-2.61,16.61,5.38
1007.0,-252.49019607843138,52.0,-49.0,-17.94,16.3,-3.25
1007.05,-267.4901960784314,84.0,-110.0,-18.99,15.67,-5.42
1007.1,-267.4901960784314,183.0,-172.0,-30.68,20.11,-8.22
1007.15,311.01960784313724,166.0,-264.0,-31.69,27.25,-6.51
1007.2,247.01960784313727,150.0,270.5098039215686,-55.11,33.8,-18.41
1007.25,152.01960784313727,101.0,-310.0,-64.98,31.0,-20.51
1007.3,-86.98039215686275,84.0,316.5098039215686,-47.65,33.17,20.57
1007.35,-267.4901960784314,-78.0,116.50980392156863,-88.29,43.18,4.96
1007.4,-283.4901960784314,-143.0,316.5098039215686,-89.27,29.21,-15.47
1007.45,-220.49019607843138,-29.0,-279.0,-80.59,5.97,-22.64
1007.5,-156.49019607843138,117.0,-203.0,-82.58,-2.03,-25.93
1007.55,-156.49019607843138,183.0,-187.0,-62.77,-16.17,-24.22
1007.6,-124.49019607843137,199.0,-280.0,-52.41,-24.19,-28.0
1007.65,-156.49019607843138,248.0,239.50980392156862,-55.07,-17.64,-26.04
1007.7,-140.49019607843138,150.0,147.50980392156862,-52.76,-19.99,-39.34
1007.75,-252.49019607843138,215.0,270.5098039215686,-33.72,-27.72,-69.54
1007.8,72.01960784313725,-247.50980392156862,301.5098039215686,-18.18,-14.53,-17.71
1007.85,104.01960784313725,68.0,-156.0,-16.5,-7.28,-7.49
1007.9,72.01960784313725,35.0,316.5098039215686,-42.65,11.29,1.64
1007.95,-6.980392156862745,-160.0,-218.0,-34.53,18.05,1.11
1008.0,279.01960784313724,-209.0,316.5098039215686,-47.48,22.35,-12.81
1008.05,-299.4901960784314,-111.0,-156.0,-36.66,22.63,-11.72
1008.1,-315.4901960784314,199.0,-141.0,-21.82,23.02,3.67
1008.15,-315.4901960784314,264.0,12.0,-11.15,39.57,10.42
1008.2,247.01960784313727,281.0,-3.0,-48.6,57.42,7.1
1008.25,216.01960784313727,150.0,-172.0,-67.67,54.1,-3.81
1008.3,263.01960784313724,68.0,-280.0,-92.35,42.2,-31.22
1008.35,216.01960784313727,84.0,132.50980392156862,-88.18,34.95,-12.91
1008.4,-236.49019607843138,101.0,-52.490196078431374,-95.18,40.13,1.5
1008.45,-45.490196078431374,150.0,24.50980392156863,-88.64,24.14,-7.38
1008.5,-45.490196078431374,264.0,147.50980392156862,-66.52,5.66,-6.26
1008.55,-93.49019607843137,215.0,286.5098039215686,-50.28,-16.38,-10.53
1008.6,2.5098039215686274,232.0,255.50980392156862,-45.2,-38.43,-20.82
1008.65,-45.490196078431374,166.0,270.5098039215686,-45.1,-44.45,-37.45
1008.7,-267.4901960784314,297.0,286.5098039215686,-36.17,-26.99,-18.41
1008.75,-267.4901960784314,166.0,-295.0,-32.95,-19.08,-28.59
1008.8,295.01960784313724,232.0,286.5098039215686,-30.96,-6.79,-17.99
1008.85,88.01960784313725,183.0,-295.0,-15.14,4.47,4.82
1008.9,136.01960784313727,150.0,286.5098039215686,-4.6,16.68,16.86
1008.95,279.01960784313724,183.0,147.50980392156862,-1.56,27.6,17.53
1009.0,311.01960784313724,215.0,316.5098039215686,16.46,21.83,23.51
1009.05,-315.4901960784314,313.0,-218.0,35.5,20.53,24.46
1009.1,-267.4901960784314,297.0,-156.0,33.92,33.83,17.32
1009.15,-204.49019607843138,281.0,-110.0,36.9,38.77,-2.03
1009.2,-220.49019607843138,264.0,-187.0,42.08,35.51,-14.52
1009.25,-172.49019607843138,183.0,-310.0,36.76,32.26,-19.63
1009.3,-188.49019607843138,166.0,316.5098039215686,32.45,26.06,-22.33
1009.35,-267.4901960784314,215.0,301.5098039215686,21.15,19.45,-14.84
1009.4,-315.4901960784314,150.0,301.5098039215686,11.7,9.19,-11.48
1009.45,-172.49019607843138,35.0,178.50980392156862,146.52,-65.56,53.93
1009.5,-220.49019607843138,35.0,209.50980392156862,-30.68,3.94,162.95
1009.55,184.5686274509804,-182.50980392156862,18.980392156862745,166.89,-68.36,-18.55
1009.6,249.0,193.49019607843138,-298.4901960784314,-75.44,-6.58,54.21
1009.65,231.01960784313727,-197.98039215686273,-98.49019607843137,-35.58,6.36,-40.39
1009.7,-315.4901960784314,-263.5098039215686,147.50980392156862,-38.24,-2.63,-4.69
1009.75,-220.49019607843138,68.0,70.50980392156863,10.75,-11.38,-0.91
1009.8,279.01960784313724,101.0,270.5098039215686,-17.9,-11.34,10.74
1009.85,-236.49019607843138,117.0,132.50980392156862,-14.33,3.42,13.68
1009.9,-283.4901960784314,150.0,132.50980392156862,-35.09,4.85,-5.77
1009.95,-283.4901960784314,281.0,24.50980392156863,-32.57,-18.1,-13.16
1010.0,-283.4901960784314,133.0,132.50980392156862,-28.65,-30.38,1.64
1010.05,263.01960784313724,199.0,255.50980392156862,-11.5,-11.97,6.85
1010.1,-283.4901960784314,-247.50980392156862,270.5098039215686,-4.71,16.23,6.61
1010.15,231.01960784313727,199.0,70.50980392156863,3.19,-8.51,-4.09
1010.2,311.01960784313724,232.0,-310.0,2.63,39.92,-71.57
1010.25,-143.47058823529412,297.52941176470586,190.01960784313727,88.63,-43.05,-3.81
1010.3,-236.49019607843138,-2.5098039215686274,135.0,40.78,-31.4,20.4
1010.35,-252.49019607843138,133.0,43.0,16.63,-45.36,23.72
1010.4,177.50980392156862,68.0,27.0,1.06,-70.49,45.35
1010.45,263.01960784313724,-182.50980392156862,-141.0,-8.0,-48.58,59.53
1010.5,-204.49019607843138,313.0,227.0,-24.13,-35.77,46.47
1010.55,216.01960784313727,199.0,181.0,-14.72,-45.01,36.43
1010.6,311.01960784313724,46.490196078431374,-110.0,-27.25,-49.11,32.86
1010.65,279.01960784313724,264.0,86.50980392156863,10.51,-65.91,15.95
1010.7,-283.4901960784314,199.0,-310.0,13.52,-47.22,25.68
1010.75,104.01960784313725,281.0,-295.0,-4.15,-53.38,-6.37
1010.8,-77.49019607843137,-29.0,286.5098039215686,-12.13,-44.52,-60.79
1010.85,-204.49019607843138,150.0,270.5098039215686,88.21,-68.22,-49.66
1010.9,-275.0,-263.5098039215686,316.5098039215686,-59.31,21.65,-4.06
1010.95,54.03921568627451,46.490196078431374,267.01960784313724,195.87,-90.65,8.15
1011.0,42.0,-2.5098039215686274,61.490196078431374,-43.84,5.34,0.83
1011.05,79.52941176470588,-62.0,-110.0,-2.78,12.13,15.5
1011.1,-117.98039215686275,-84.50980392156863,-156.0,30.91,54.03,12.73
1011.15,-213.98039215686273,-149.50980392156862,43.0,-140.12,122.77,22.85
1011.2,-245.98039215686273,-45.0,-233.0,-154.61,128.61,5.0
1011.25,-6.980392156862745,-78.0,-279.0,-173.83,121.75,-5.25
1011.3,57.01960784313726,-29.0,-80.0,-73.97,81.78,-35.63
1011.35,200.01960784313727,-78.0,-295.0,-105.09,90.92,-98.91
1011.4,57.01960784313726,-29.0,-33.0,26.47,103.27,-131.14
1011.45,184.01960784313727,264.0,-33.0,-31.9,127.49,-134.57
1011.5,200.01960784313727,-214.50980392156862,27.0,-109.46,146.11,-104.44
1011.55,263.01960784313724,-263.5098039215686,43.0,-97.6,144.01,-81.86
1011.6,-220.49019607843138,-18.50980392156863,-3.0,-99.7,128.51,-51.41
1011.65,-45.490196078431374,-35.509803921568626,-3.0,-96.48,84.69,-10.5
1011.7,113.50980392156863,-51.509803921568626,27.0,-53.43,34.57,21.48
1011.75,161.50980392156862,79.49019607843137,-64.0,-45.31,-11.41,49.2
1011.8,129.50980392156862,30.49019607843137,-95.0,-29.14,-48.86,67.44
1011.85,65.50980392156863,79.49019607843137,-187.0,-22.63,-61.99,79.44
1011.9,-45.490196078431374,79.49019607843137,255.50980392156862,-39.04,-52.64,74.44
1011.95,-77.49019607843137,-18.50980392156863,147.50980392156862,-37.68,-47.57,62.01
1012.0,-77.49019607843137,-100.50980392156863,24.50980392156863,-3.34,-34.83,45.56
1012.05,-156.49019607843138,-149.50980392156862,-175.49019607843138,3.23,-18.45,27.54
1012.1,311.01960784313724,313.0,-298.4901960784314,-3.8,7.55,-10.36
1012.15,231.01960784313727,101.0,282.01960784313724,-39.22,25.89,-79.38
1012.2,88.01960784313725,-29.0,-160.49019607843138,-14.82,27.81,-115.39
1012.25,41.01960784313726,117.0,-6.490196078431373,23.77,6.88,-126.77
1012.3,-236.49019607843138,248.0,-36.490196078431374,-73.8,78.35,-107.06
1012.35,25.019607843137255,-29.0,-279.0,-165.53,70.62,-105.84
1012.4,-283.4901960784314,-29.0,-264.0,-109.71,61.2,-116.97
1012.45,-252.49019607843138,133.0,-187.0,-32.25,30.16,-136.32
1012.5,-108.49019607843137,232.0,-187.0,6.66,-1.23,-142.17
1012.55,-140.49019607843138,281.0,-233.0,18.28,-35.11,-133.52
1012.6,-108.49019607843137,297.0,286.5098039215686,46.42,-55.58,-107.34
1012.65,-156.49019607843138,-296.5098039215686,116.50980392156863,55.03,-58.38,-61.6
1012.7,-156.49019607843138,-263.5098039215686,-36.490196078431374,53.07,-54.01,-8.01
1012.75,-108.49019607843137,-296.5098039215686,-129.49019607843138,23.67,-36.12,19.56
1012.8,-299.4901960784314,199.0,-98.49019607843137,-8.7,16.12,42.17
1012.85,120.01960784313725,281.0,-83.49019607843137,51.46,37.96,109.86
1012.9,-236.49019607843138,-263.5098039215686,39.509803921568626,28.67,62.88,114.58
1012.95,295.01960784313724,-296.5098039215686,70.50980392156863,39.63,60.36,136.95
1013.0,88.01960784313725,-296.5098039215686,239.50980392156862,63.01,57.56,148.67
1013.05,120.01960784313725,-231.50980392156862,286.5098039215686,-2.43,74.92,164.98
1013.1,25.019607843137255,133.0,-295.0,-10.06,52.24,156.83
1013.15,247.01960784313727,199.0,301.5098039215686,4.91,38.98,135.13
1013.2,-315.4901960784314,199.0,-295.0,17.23,25.57,86.58
1013.25,-252.49019607843138,117.0,286.5098039215686,-13.95,21.34,32.37
1013.3,-315.4901960784314,-29.0,-310.0,-55.81,6.39,-61.07
1013.35,-117.98039215686275,-94.0,-295.0,25.35,-29.54,-87.92
1013.4,88.01960784313725,166.0,-37.490196078431374,-12.93,-14.39,-96.11
1013.45,-204.49019607843138,-78.0,55.509803921568626,-109.6,11.92,-130.13
1013.5,-236.49019607843138,-209.0,163.50980392156862,-81.29,12.76,-165.83
1013.55,-156.49019607843138,133.0,-6.490196078431373,-41.07,9.68,-191.38
1013.6,-220.49019607843138,248.0,116.50980392156863,-78.07,7.13,-190.43
1013.65,311.01960784313724,199.0,132.50980392156862,-78.1,6.74,-160.93
1013.7,311.01960784313724,-312.5098039215686,147.50980392156862,-80.48,3.56,-122.36
1013.75,-220.49019607843138,-263.5098039215686,178.50980392156862,-64.49,-10.57,-90.26
1013.8,-140.49019607843138,-198.50980392156862,147.50980392156862,-31.2,-29.02,-63.07
1013.85,-172.49019607843138,-116.50980392156863,162.50980392156862,42.81,-52.99,-33.84
1013.9,295.01960784313724,-67.50980392156863,116.50980392156863,89.15,-32.97,40.8
1013.95,104.01960784313725,128.49019607843138,-236.49019607843138,155.34,-8.12,120.18
1014.0,247.01960784313727,30.49019607843137,24.50980392156863,97.97,45.17,180.07
1014.05,104.01960784313725,-296.5098039215686,70.50980392156863,36.79,66.63,217.03
1014.1,168.01960784313727,199.0,147.50980392156862,6.9,72.19,215.84
1014.15,104.01960784313725,183.0,255.50980392156862,-1.8,67.33,193.68
1014.2,72.01960784313725,150.0,270.5098039215686,12.92,51.3,163.37
1014.25,231.01960784313727,166.0,-310.0,20.69,32.4,130.23
1014.3,-299.4901960784314,101.0,-264.0,9.42,16.58,64.99
1014.35,-283.4901960784314,19.0,-295.0,2.49,-8.65,-14.7
1014.4,-236.49019607843138,19.0,-310.0,-19.34,-30.52,-104.96
1014.45,295.01960784313724,3.0,286.5098039215686,26.22,-60.45,-132.86
1014.5,279.01960784313724,166.0,163.50980392156862,70.67,-81.83,-130.51
1014.55,-172.49019607843138,183.0,-52.490196078431374,-14.96,-43.33,-125.82
1014.6,263.01960784313724,-45.0,-36.490196078431374,-116.04,-16.0,-134.15
1014.65,-220.49019607843138,-29.0,101.50980392156863,-102.85,-7.11,-146.96
1014.7,-204.49019607843138,232.0,101.50980392156863,-49.3,-10.36,-150.99
1014.75,-252.49019607843138,-280.5098039215686,147.50980392156862,-19.62,-24.61,-133.28
1014.8,-204.49019607843138,-231.50980392156862,116.50980392156863,-6.77,-28.07,-79.38
1014.85,-188.49019607843138,-247.50980392156862,101.50980392156863,5.54,-25.41,-35.42
1014.9,-172.49019607843138,-198.50980392156862,70.50980392156863,-2.05,-25.24,1.95
1014.95,-315.4901960784314,-198.50980392156862,70.50980392156863,27.73,-13.06,38.95
1015.0,88.01960784313725,-133.50980392156862,-6.490196078431373,73.05,-4.1,99.71
1015.05,184.01960784313727,-116.50980392156863,-113.49019607843137,125.31,36.42,147.87
1015.1,88.01960784313725,-182.50980392156862,55.509803921568626,60.7,81.96,179.02
1015.15,-22.980392156862745,232.0,55.509803921568626,18.07,82.45,194.52
1015.2,136.01960784313727,101.0,270.5098039215686,12.92,76.5,172.68
1015.25,200.01960784313727,166.0,224.50980392156862,17.26,67.08,140.34
1015.3,-315.4901960784314,150.0,-279.0,18.0,41.81,89.24
1015.35,-220.49019607843138,150.0,-203.0,17.51,17.14,46.12
1015.4,-108.49019607843137,117.0,-172.0,-1.8,2.65,4.47
1015.45,-283.4901960784314,84.0,-172.0,0.85,-29.44,-40.49
1015.5,-236.49019607843138,133.0,-233.0,3.09,-52.75,-102.58
1015.55,184.01960784313727,117.0,316.5098039215686,25.14,-68.08,-113.05
1015.6,295.01960784313724,183.0,55.509803921568626,36.2,-88.94,-105.77
1015.65,-140.49019607843138,84.0,-98.49019607843137,-35.19,-51.38,-109.55
1015.7,311.01960784313724,-62.0,-144.49019607843138,-88.92,-25.06,-117.0
1015.75,-204.49019607843138,19.0,-98.49019607843137,-72.99,-15.47,-122.29
1015.8,-172.49019607843138,232.0,9.509803921568627,-38.03,-11.9,-114.13
1015.85,-204.49019607843138,-312.5098039215686,24.50980392156863,-24.03,-12.08,-85.96
1015.9,-172.49019607843138,-296.5098039215686,86.50980392156863,-16.19,-7.6,-45.5
1015.95,-156.49019607843138,-280.5098039215686,55.509803921568626,-5.41,-6.44,-8.22
1016.0,-108.49019607843137,-231.50980392156862,55.509803921568626,0.71,-3.99,16.34
1016.05,-236.49019607843138,-263.5098039215686,55.509803921568626,26.96,-31.61,29.08
1016.1,-252.49019607843138,-247.50980392156862,55.509803921568626,66.58,5.13,53.19
1016.15,-101.98039215686275,-133.50980392156862,-206.49019607843138,96.29,13.43,102.3
1016.2,231.01960784313727,-231.50980392156862,55.509803921568626,86.39,53.29,133.06
1016.25,-70.98039215686275,248.0,147.50980392156862,77.64,54.41,151.68
1016.3,168.01960784313727,297.0,193.50980392156862,92.37,49.76,151.37
1016.35,311.01960784313724,248.0,-295.0,146.94,51.65,133.8
1016.4,311.01960784313724,264.0,-280.0,173.92,54.69,108.25
1016.45,-299.4901960784314,248.0,-218.0,193.7,50.84,82.24
1016.5,-299.4901960784314,-312.5098039215686,-156.0,137.03,27.43,64.78
1016.55,-252.49019607843138,101.0,-187.0,80.05,-10.96,44.62
1016.6,-236.49019607843138,52.0,-295.0,27.62,-42.32,8.25
1016.65,311.01960784313724,-78.0,224.50980392156862,-76.28,-40.57,16.69
1016.7,-188.49019607843138,-160.0,-21.49019607843137,-35.75,-46.97,19.52
1016.75,34.509803921568626,-111.0,-113.49019607843137,-73.52,-42.88,-1.82
1016.8,-124.49019607843137,-94.0,-267.4901960784314,-160.0,-29.12,0.41
1016.85,-29.49019607843137,-127.0,-144.49019607843138,-115.38,-30.73,-15.4
1016.9,145.50980392156862,183.0,-144.49019607843138,-58.15,-25.83,-12.28
1016.95,161.50980392156862,-263.5098039215686,-129.49019607843138,-21.02,-29.09,-8.29
1017.0,193.50980392156862,-214.50980392156862,24.50980392156863,-1.07,-31.33,-7.98
1017.05,177.50980392156862,-214.50980392156862,101.50980392156863,10.02,-25.94,-8.47
1017.1,81.50980392156863,-280.5098039215686,209.50980392156862,-6.35,-26.36,-10.67
1017.15,-77.49019607843137,-263.5098039215686,209.50980392156862,-52.13,-19.53,-33.21
1017.2,-299.4901960784314,166.0,-218.0,-32.57,-7.88,-61.84
1017.25,88.01960784313725,150.0,-187.0,-63.3,1.21,-43.99
1017.3,-86.98039215686275,84.0,-156.0,-37.36,-12.85,-42.59
1017.35,88.01960784313725,68.0,-64.0,-38.94,-0.88,-38.71
1017.4,9.019607843137255,183.0,147.50980392156862,-126.37,-3.68,-42.77
1017.45,88.01960784313725,188.50980392156862,163.50980392156862,-44.57,0.09,-6.3
1017.5,25.019607843137255,297.0,-221.49019607843138,-3.34,-8.54,37.76
1017.55,88.01960784313725,232.0,-21.49019607843137,10.86,-17.36,43.08
1017.6,120.01960784313725,-143.0,-21.49019607843137,-54.13,-14.07,65.27
1017.65,136.01960784313727,264.0,-233.0,-96.93,-4.83,58.23
1017.7,104.01960784313725,84.0,70.50980392156863,-87.45,-66.4,71.92
1017.75,-220.49019607843138,46.490196078431374,-110.0,-45.8,-95.31,93.09
1017.8,-29.49019607843137,-236.01960784313727,-246.50980392156862,-52.97,-48.23,44.86
1017.85,-77.49019607843137,193.49019607843138,-110.0,-139.03,-26.64,29.32
1017.9,256.5098039215686,-312.5098039215686,119.0,113.44,-104.44,-1.4
1017.95,-259.0,269.98039215686276,-49.0,32.59,-79.66,56.52
1018.0,285.52941176470586,95.49019607843137,73.0,84.67,-115.61,99.53
1018.05,216.01960784313727,291.4901960784314,89.0,102.21,-111.55,105.06
1018.1,-204.49019607843138,226.49019607843138,289.0,74.59,-93.98,73.77
1018.15,129.50980392156862,-35.509803921568626,258.0,114.0,-93.03,46.61
1018.2,-61.490196078431374,-67.50980392156863,43.0,120.34,-80.01,13.19
1018.25,-45.490196078431374,-100.50980392156863,-79.0,133.6,-57.68,1.5
1018.3,-61.490196078431374,144.49019607843138,-280.0,94.02,-51.17,-13.75
1018.35,81.50980392156863,307.4901960784314,-203.0,-30.75,-18.97,-96.7
1018.4,113.50980392156863,-23.49019607843137,313.01960784313724,-48.95,27.57,-37.76
1018.45,-259.0,-236.01960784313727,-298.4901960784314,11.35,5.13,-25.06
1018.5,-13.490196078431373,46.490196078431374,58.0,28.32,-11.97,-4.55
1018.55,208.50980392156862,13.490196078431373,12.0,39.45,-13.93,-13.65
1018.6,208.50980392156862,62.490196078431374,-110.0,9.21,-19.15,-40.39
1018.65,208.50980392156862,30.49019607843137,-187.0,28.43,-30.73,-56.35
1018.7,224.50980392156862,-2.5098039215686274,-233.0,3.65,-33.95,-62.37
1018.75,208.50980392156862,62.490196078431374,-172.0,-26.51,11.89,-14.17
1018.8,42.0,-8.019607843137255,-110.0,22.62,0.51,-35.42
1018.85,-252.49019607843138,-133.50980392156862,-83.49019607843137,63.71,-31.26,-7.8
1018.9,-252.49019607843138,209.49019607843138,-79.0,63.64,-49.77,-17.18
1018.95,-61.490196078431374,-35.509803921568626,73.0,92.3,-60.41,-37.48
1019.0,34.509803921568626,30.49019607843137,-33.0,139.03,-62.09,-53.97
1019.05,2.5098039215686274,62.490196078431374,-233.0,145.29,-67.1,-68.84
1019.1,-124.49019607843137,-18.50980392156863,-264.0,149.49,-67.34,-60.02
1019.15,152.01960784313727,-84.50980392156863,-249.0,189.95,-77.95,-24.64
1019.2,104.01960784313725,-214.50980392156862,116.50980392156863,211.9,-81.52,-1.29
1019.25,136.01960784313727,297.0,147.50980392156862,242.49,-90.97,16.65
1019.3,231.01960784313727,313.0,-310.0,238.11,-94.29,45.88
1019.35,311.01960784313724,-182.50980392156862,-79.0,228.31,-79.59,62.54
1019.4,216.01960784313727,-247.50980392156862,73.0,189.95,-68.22,77.55
1019.45,279.01960784313724,-280.5098039215686,58.0,168.85,-57.09,72.2
1019.5,295.01960784313724,264.0,-49.0,128.74,-32.94,52.6
1019.55,295.01960784313724,248.0,-95.0,95.03,-13.72,32.19
1019.6,311.01960784313724,-312.5098039215686,-33.0,90.41,-3.99,12.87
1019.65,295.01960784313724,297.0,-95.0,72.88,6.22,2.62
1019.7,279.01960784313724,-312.5098039215686,-64.0,42.99,16.33,-15.71
1019.75,120.01960784313725,264.0,-156.0,76.8,30.26,-1.75
1019.8,263.01960784313724,101.0,316.5098039215686,13.9,47.73,-6.16
1019.85,279.01960784313724,-13.0,-310.0,-37.33,47.73,-7.7
1019.9,-299.4901960784314,3.0,-233.0,-41.25,42.72,-6.54
1019.95,-188.49019607843138,101.0,-310.0,-41.0,24.35,-5.28
1020.0,-124.49019607843137,150.0,-279.0,-30.71,12.48,-6.96
1020.05,-108.49019607843137,183.0,301.5098039215686,-25.01,2.12,-6.96
1020.1,-108.49019607843137,166.0,162.50980392156862,-20.07,-3.43,1.88
1020.15,-156.49019607843138,133.0,101.50980392156863,8.09,-27.44,12.1
1020.2,-172.49019607843138,313.0,316.5098039215686,-51.26,0.58,-23.2
1020.25,-172.49019607843138,-192.0,-83.49019607843137,-42.51,-17.12,-29.89
1020.3,-315.4901960784314,232.0,101.50980392156863,-18.88,-46.06,-50.82
1020.35,216.01960784313727,-231.50980392156862,255.50980392156862,-10.38,-39.66,-38.95
1020.4,216.01960784313727,-296.5098039215686,301.5098039215686,-72.92,-32.94,-28.77
1020.45,-299.4901960784314,101.0,-295.0,-42.51,-17.99,-51.52
1020.5,311.01960784313724,183.0,270.5098039215686,-6.42,-14.04,-43.96
1020.55,-315.4901960784314,183.0,-264.0,4.45,-11.41,-31.43
1020.6,279.01960784313724,150.0,-156.0,-3.76,-3.36,-24.85
1020.65,247.01960784313727,133.0,-126.0,-12.79,0.69,-23.73
1020.7,263.01960784313724,35.0,-141.0,-32.22,4.47,-33.04
1020.75,-315.4901960784314,35.0,-156.0,-42.75,13.22,-35.77
1020.8,311.01960784313724,-13.0,-141.0,-34.56,23.09,-31.11
1020.85,231.01960784313727,52.0,-156.0,-23.05,23.23,-25.76
1020.9,168.01960784313727,101.0,-187.0,-32.71,32.08,-34.61
1020.95,-38.98039215686274,133.0,-156.0,4.94,30.96,11.37
1021.0,200.01960784313727,3.0,239.50980392156862,-22.84,32.22,27.36
1021.05,-204.49019607843138,-160.0,209.50980392156862,-45.2,34.71,7.2
1021.1,-267.4901960784314,-127.0,316.5098039215686,-37.99,25.61,4.44
1021.15,-140.49019607843138,-29.0,-249.0,-30.08,13.43,5.98
1021.2,-108.49019607843137,52.0,-295.0,-11.01,-2.21,12.24
1021.25,-172.49019607843138,199.0,-264.0,8.51,-17.36,16.3
1021.3,-140.49019607843138,166.0,193.50980392156862,10.79,-20.93,18.37
1021.35,-188.49019607843138,101.0,86.50980392156863,3.37,-21.11,15.11
1021.4,-283.4901960784314,101.0,147.50980392156862,4.84,-27.65,12.42
1021.45,247.01960784313727,68.0,209.50980392156862,23.07,-43.86,-5.77
1021.5,216.01960784313727,150.0,301.5098039215686,33.96,-32.48,11.26
1021.55,184.01960784313727,117.0,-310.0,54.19,-29.3,25.54
1021.6,88.01960784313725,150.0,301.5098039215686,33.22,-5.88,33.35
1021.65,88.01960784313725,3.0,-187.0,43.16,-3.08,32.02
1021.7,-299.4901960784314,-13.0,-310.0,35.71,6.5,16.9
1021.75,-315.4901960784314,-29.0,-187.0,33.19,10.84,14.03
1021.8,-283.4901960784314,35.0,-110.0,31.12,7.97,10.18
1021.85,-267.4901960784314,117.0,-141.0,28.71,7.65,1.57
1021.9,-283.4901960784314,183.0,-187.0,18.77,8.88,-4.76
1021.95,295.01960784313724,133.0,-203.0,4.49,18.71,-12.53
1022.0,200.01960784313727,117.0,-279.0,-17.62,28.06,-17.08
1022.05,136.01960784313727,52.0,-249.0,-30.75,28.41,-26.77
1022.1,-54.98039215686274,117.0,-218.0,23.84,23.75,9.55
1022.15,247.01960784313727,-62.0,178.50980392156862,-33.06,39.22,19.24
1022.2,-156.49019607843138,-225.0,-310.0,-49.68,37.47,-5.98
1022.25,-140.49019607843138,-78.0,-279.0,-36.31,17.63,-10.04
1022.3,-108.49019607843137,52.0,-187.0,-20.42,-0.88,-11.13
1022.35,-172.49019607843138,166.0,-203.0,-15.0,-13.65,-16.34
1022.4,-188.49019607843138,199.0,316.5098039215686,-1.84,-27.34,-2.9
1022.45,-140.49019607843138,166.0,86.50980392156863,-9.57,-24.92,-7.07
1022.5,-140.49019607843138,68.0,-6.490196078431373,-13.77,-29.3,-18.79
1022.55,-220.49019607843138,133.0,55.509803921568626,3.33,-42.21,-17.39
1022.6,311.01960784313724,215.0,209.50980392156862,28.25,-62.58,-29.08
1022.65,279.01960784313724,215.0,316.5098039215686,38.12,-45.89,-19.07
1022.7,72.01960784313725,199.0,-279.0,69.59,-44.0,11.93
1022.75,104.01960784313725,52.0,286.5098039215686,16.21,-7.28,16.55
1022.8,9.019607843137255,-62.0,-249.0,23.07,5.17,22.95
1022.85,247.01960784313727,-160.0,-295.0,37.53,7.72,21.45
1022.9,-283.4901960784314,-62.0,-172.0,27.59,11.36,12.91
1022.95,-283.4901960784314,-13.0,-79.0,34.66,5.8,3.28
1023.0,-252.49019607843138,101.0,-79.0,28.88,3.07,-3.36
1023.05,-267.4901960784314,166.0,-95.0,23.49,2.05,-5.6
1023.1,-299.4901960784314,117.0,-233.0,13.41,20.32,-8.47
1023.15,216.01960784313727,117.0,286.5098039215686,-7.02,28.79,-17.25
1023.2,263.01960784313724,183.0,101.50980392156863,-18.39,39.89,-16.59
1023.25,-117.98039215686275,84.0,-233.0,30.56,45.03,38.14
1023.3,168.01960784313727,-94.0,209.50980392156862,-24.27,61.87,36.85
1023.35,-267.4901960784314,-225.0,-233.0,-32.67,47.34,8.6
1023.4,-188.49019607843138,-111.0,-249.0,-26.2,15.07,-7.17
1023.45,-140.49019607843138,-13.0,-172.0,-24.66,-0.84,-9.9
1023.5,-140.49019607843138,52.0,-233.0,-23.05,-5.43,-4.44
1023.55,-172.49019607843138,101.0,239.50980392156862,-16.96,-13.83,4.23
1023.6,-124.49019607843137,117.0,132.50980392156862,-3.06,-21.25,11.75
1023.65,-140.49019607843138,68.0,39.509803921568626,-19.37,-24.4,0.8
1023.7,-220.49019607843138,52.0,86.50980392156863,1.06,-53.27,-9.31
1023.75,-299.4901960784314,150.0,178.50980392156862,11.35,-70.63,-40.67
1023.8,231.01960784313727,281.0,-295.0,24.72,-47.67,-4.23
1023.85,88.01960784313725,133.0,-264.0,60.1,-44.07,12.77
1023.9,88.01960784313725,101.0,193.50980392156862,13.45,7.3,20.78
1023.95,9.019607843137255,-45.0,-187.0,16.81,10.14,15.15
1024.0,295.01960784313724,-78.0,-249.0,24.37,4.61,-5.18
1024.05,-299.4901960784314,19.0,-18.0,41.66,-5.78,-12.7
1024.1,-204.49019607843138,84.0,-3.0,65.21,-11.52,-12.46
1024.15,-204.49019607843138,199.0,12.0,40.05,-5.92,-8.89
1024.2,-252.49019607843138,199.0,-33.0,24.72,5.38,-12.25
1024.25,247.01960784313727,183.0,-172.0,35.04,20.57,-10.57
1024.3,168.01960784313727,3.0,270.5098039215686,-4.36,29.88,-25.23
1024.35,9.019607843137255,-78.0,316.5098039215686,-1.42,52.59,8.01
1024.4,104.01960784313725,-143.0,316.5098039215686,-14.05,59.1,29.81
1024.45,311.01960784313724,-241.0,-203.0,-25.85,49.55,10.91
1024.5,-252.49019607843138,-143.0,-156.0,-36.63,41.15,8.15
1024.55,-124.49019607843137,-78.0,-172.0,-25.32,11.89,-1.43
1024.6,-124.49019607843137,84.0,-233.0,13.1,-12.15,28.55
1024.65,-108.49019607843137,117.0,270.5098039215686,-5.55,-18.52,24.7
1024.7,-156.49019607843138,35.0,163.50980392156862,-24.59,-22.65,0.0
1024.75,-236.49019607843138,117.0,70.50980392156863,-18.29,-23.07,6.96
1024.8,-156.49019607843138,166.0,39.509803921568626,-12.34,-36.86,6.71
1024.85,-236.49019607843138,199.0,301.5098039215686,16.56,-68.78,-14.49
1024.9,263.01960784313724,199.0,316.5098039215686,22.09,-46.87,1.85
1024.95,-38.98039215686274,52.0,-310.0,16.77,-23.87,12.91
1025.0,152.01960784313727,-94.0,301.5098039215686,-13.28,9.51,-13.93
1025.05,88.01960784313725,-45.0,-218.0,2.42,9.68,3.18
1025.1,-315.4901960784314,52.0,-110.0,36.3,-3.68,10.81
1025.15,-236.49019607843138,35.0,-33.0,32.28,-3.96,3.11
1025.2,-172.49019607843138,19.0,-33.0,33.75,-2.52,-6.54
1025.25,-220.49019607843138,68.0,-110.0,19.89,6.81,-8.78
1025.3,247.01960784313727,68.0,-110.0,29.51,15.46,-3.5
1025.35,200.01960784313727,84.0,316.5098039215686,7.22,21.58,-15.92
1025.4,168.01960784313727,35.0,209.50980392156862,3.02,37.75,3.91
1025.45,152.01960784313727,-45.0,224.50980392156862,0.11,36.07,25.05
1025.5,-299.4901960784314,-45.0,270.5098039215686,-22.45,31.73,20.33
1025.55,216.01960784313727,3.0,-233.0,-3.31,13.39,26.84
1025.6,-236.49019607843138,-13.0,316.5098039215686,-8.38,3.8,26.52
1025.65,-188.49019607843138,84.0,-310.0,5.89,-16.45,32.79
1025.7,-156.49019607843138,117.0,239.50980392156862,0.39,-12.71,30.02
1025.75,-172.49019607843138,166.0,163.50980392156862,-5.55,-15.33,29.67
1025.8,-108.49019607843137,166.0,286.5098039215686,19.36,-30.94,26.91
